[{"url":{},"meta":{"labjs_version":"20.2.4","labjs_build":{"flavor":"production","commit":"f5b4a49f956347addd546a832a3327688c2c0fef"},"location":"https://jatos.plymouth.ac.uk/publix/5f80e48e-b187-4796-949d-a60328314362/b296b92c-f4d1-46e2-b9a1-0bd035bf7456/start","userAgent":"Mozilla/5.0 (Windows NT 10.0; Win64; x64) AppleWebKit/537.36 (KHTML, like Gecko) Chrome/114.0.0.0 Safari/537.36","platform":"Win32","language":"en-US","locale":"en-US","timeZone":"Europe/London","timezoneOffset":-60,"screen_width":1366,"screen_height":768,"scroll_width":1518,"scroll_height":646,"window_innerWidth":1517,"window_innerHeight":694,"devicePixelRatio":0.8999999761581421},"sender":"BRIC & Study ID","sender_type":"html.Form","sender_id":"0","BRICID":"SSTO0540","studyID":"GNG","ended_on":"form submission","duration":32439.78099998212,"time_run":1354,"time_render":1338.463,"time_show":1355.019,"time_end":33794.79999998212,"time_commit":33795.09999999404,"timestamp":"2023-07-21T12:12:12.236Z","time_switch":33803.604},{"sender":"Context form","sender_type":"html.Form","sender_id":"1","todayDate":"2023-07-21","Date of visit":"2023-07-21","stimulation_type":"TUS","":"","ended_on":"form submission","duration":5653.295999976159,"time_run":33795.19999998808,"time_render":33786.993,"time_show":33803.604,"time_end":39456.89999997616,"time_commit":39457.69999998808,"timestamp":"2023-07-21T12:12:17.898Z","time_switch":39470.098},{"sender":"Symptoms form","sender_type":"html.Form","sender_id":"2","Headache value":"1","Headache relation":"1","Neck pain value":"1","Neck pain relation":"1","Tooth pain value":"1","Tooth pain relation":"1","Head value":"1","Head relation":"1","Itchiness value":"1","Itchiness relation":"1","Hearing changes value":"1","Hearing changes relation":"1","Speech value":"1","Speech relation":"1","Vision value":"1","Vision relation":"1","Twitching value":"1","Twitching relation":"1","Balance value":"1","Balance relation":"1","Hand value":"1","Hand relation":"1","Numbness value":"1","Numbness relation":"1","Tightness value":"1","Tightness relation":"1","Unusual feelings value":"1","Unusual feelings relation":"1","Anxious value":"1","Anxious relation":"1","Sleepiness value":"1","Sleepiness relation":"1","Attentional difficulties value":"1","Attentional difficulties relation":"1","Forgetful value":"1","Forgetful relation":"1","Nausea value":"1","Nausea relation":"1","Dizziness value":"1","Dizziness relation":"1","Other symptom":"","Other value":"1","Other relation":"1","Comments":"","ended_on":"form submission","duration":35296.00199999404,"time_run":39458.09999999404,"time_render":39453.316,"time_show":39470.098,"time_end":74766.09999999404,"time_commit":74766.79999998212,"timestamp":"2023-07-21T12:12:53.207Z"}]
[{"url":{},"meta":{"labjs_version":"20.2.4","labjs_build":{"flavor":"production","commit":"f5b4a49f956347addd546a832a3327688c2c0fef"},"location":"https://jatos.plymouth.ac.uk/publix/521e9a16-893c-479c-ba6d-6a1086a00fe5/b296b92c-f4d1-46e2-b9a1-0bd035bf7456/start","userAgent":"Mozilla/5.0 (Windows NT 10.0; Win64; x64) AppleWebKit/537.36 (KHTML, like Gecko) Chrome/114.0.0.0 Safari/537.36","platform":"Win32","language":"en-US","locale":"en-US","timeZone":"Europe/London","timezoneOffset":-60,"screen_width":1366,"screen_height":768,"scroll_width":1518,"scroll_height":646,"window_innerWidth":1517,"window_innerHeight":694,"devicePixelRatio":0.8999999761581421},"sender":"BRIC & Study ID","sender_type":"html.Form","sender_id":"0","BRICID":"LECA0624","studyID":"GNG","ended_on":"form submission","duration":2107330.077,"time_run":1282.699999988079,"time_render":1260.421,"time_show":1276.923,"time_end":2108607,"time_commit":2108607.799999982,"timestamp":"2023-07-21T10:38:02.990Z","time_switch":2108616.589},{"sender":"Context form","sender_type":"html.Form","sender_id":"1","todayDate":"2023-07-21","Date of visit":"2023-07-21","stimulation_type":"TUS","":"","ended_on":"form submission","duration":4918.710999981966,"time_run":2108608.399999976,"time_render":2108599.906,"time_show":2108616.589,"time_end":2113535.299999982,"time_commit":2113535.5,"timestamp":"2023-07-21T10:38:07.917Z","time_switch":2113549.644},{"sender":"Symptoms form","sender_type":"html.Form","sender_id":"2","Headache value":"1","Headache relation":"1","Neck pain value":"1","Neck pain relation":"1","Tooth pain value":"1","Tooth pain relation":"1","Head value":"1","Head relation":"1","Itchiness value":"1","Itchiness relation":"1","Hearing changes value":"1","Hearing changes relation":"1","Speech value":"1","Speech relation":"1","Vision value":"1","Vision relation":"1","Twitching value":"1","Twitching relation":"1","Balance value":"1","Balance relation":"1","Hand value":"1","Hand relation":"1","Numbness value":"1","Numbness relation":"1","Tightness value":"1","Tightness relation":"1","Unusual feelings value":"1","Unusual feelings relation":"1","Anxious value":"1","Anxious relation":"1","Sleepiness value":"1","Sleepiness relation":"1","Attentional difficulties value":"1","Attentional difficulties relation":"1","Forgetful value":"1","Forgetful relation":"1","Nausea value":"1","Nausea relation":"1","Dizziness value":"1","Dizziness relation":"1","Other symptom":"","Other value":"1","Other relation":"1","Comments":"","ended_on":"form submission","duration":15592.155999982264,"time_run":2113535.599999994,"time_render":2113533.104,"time_show":2113549.644,"time_end":2129141.799999982,"time_commit":2129142,"timestamp":"2023-07-21T10:38:23.524Z"}]
[{"url":{},"meta":{"labjs_version":"20.2.4","labjs_build":{"flavor":"production","commit":"f5b4a49f956347addd546a832a3327688c2c0fef"},"location":"https://jatos.plymouth.ac.uk/publix/d0914665-6708-4414-b1d7-c64d2f773e41/b296b92c-f4d1-46e2-b9a1-0bd035bf7456/start","userAgent":"Mozilla/5.0 (Windows NT 10.0; Win64; x64) AppleWebKit/537.36 (KHTML, like Gecko) Chrome/114.0.0.0 Safari/537.36","platform":"Win32","language":"en-US","locale":"en-US","timeZone":"Europe/London","timezoneOffset":-60,"screen_width":1366,"screen_height":768,"scroll_width":1518,"scroll_height":646,"window_innerWidth":1517,"window_innerHeight":694,"devicePixelRatio":0.8999999761581421},"sender":"BRIC & Study ID","sender_type":"html.Form","sender_id":"0","BRICID":"JYDF0098","studyID":"GNG","ended_on":"form submission","duration":9605.24400000298,"time_run":1282.800000011921,"time_render":1261.932,"time_show":1278.456,"time_end":10883.70000000298,"time_commit":10884.20000000298,"timestamp":"2023-07-20T12:06:31.313Z","time_switch":10894.723},{"sender":"Context form","sender_type":"html.Form","sender_id":"1","todayDate":"2023-07-20","Date of visit":"2023-07-20","stimulation_type":"TUS","":"","ended_on":"form submission","duration":1152096.277,"time_run":10884.5,"time_render":10878.186,"time_show":10894.723,"time_end":1162991,"time_commit":1162992.100000009,"timestamp":"2023-07-20T12:25:43.764Z","time_switch":1163020.8},{"sender":"Symptoms form","sender_type":"html.Form","sender_id":"2","Headache value":"1","Headache relation":"1","Neck pain value":"1","Neck pain relation":"1","Tooth pain value":"1","Tooth pain relation":"1","Head value":"1","Head relation":"1","Itchiness value":"1","Itchiness relation":"1","Hearing changes value":"1","Hearing changes relation":"1","Speech value":"1","Speech relation":"1","Vision value":"1","Vision relation":"1","Twitching value":"1","Twitching relation":"1","Balance value":"1","Balance relation":"1","Hand value":"1","Hand relation":"1","Numbness value":"1","Numbness relation":"1","Tightness value":"1","Tightness relation":"1","Unusual feelings value":"1","Unusual feelings relation":"1","Anxious value":"1","Anxious relation":"1","Sleepiness value":"2","Sleepiness relation":"1","Attentional difficulties value":"1","Attentional difficulties relation":"1","Forgetful value":"1","Forgetful relation":"1","Nausea value":"1","Nausea relation":"1","Dizziness value":"1","Dizziness relation":"1","Other symptom":"","Other value":"1","Other relation":"1","Comments":"fatigue/tiredness - unrelated, late shift work pattern","ended_on":"form submission","duration":67689.60000000591,"time_run":1162992.600000009,"time_render":1162987.745,"time_show":1163020.8,"time_end":1230710.400000006,"time_commit":1230711.300000012,"timestamp":"2023-07-20T12:26:51.483Z"}]
[{"url":{},"meta":{"labjs_version":"20.2.4","labjs_build":{"flavor":"production","commit":"f5b4a49f956347addd546a832a3327688c2c0fef"},"location":"https://jatos.plymouth.ac.uk/publix/e3d7dcd2-2509-43de-b292-25adb17f3460/b296b92c-f4d1-46e2-b9a1-0bd035bf7456/start","userAgent":"Mozilla/5.0 (Linux; Android 10; K) AppleWebKit/537.36 (KHTML, like Gecko) Chrome/114.0.0.0 Mobile Safari/537.36","platform":"Linux armv81","language":"en-GB","locale":"en-GB","timeZone":"Europe/London","timezoneOffset":-60,"screen_width":360,"screen_height":780,"scroll_width":360,"scroll_height":705,"window_innerWidth":360,"window_innerHeight":649,"devicePixelRatio":3},"sender":"BRIC & Study ID","sender_type":"html.Form","sender_id":"0","BRICID":"MLGA1440","studyID":"","ended_on":"form submission","duration":7560.9900000014895,"time_run":16646.10000000149,"time_render":16665.897,"time_show":16707.61,"time_end":24268.60000000149,"time_commit":24269.29999999702,"timestamp":"2023-07-20T10:27:23.190Z","time_switch":24274.332},{"sender":"Context form","sender_type":"html.Form","sender_id":"1","todayDate":"2023-07-20","Date of visit":"2023-07-20","stimulation_type":"TUS","":"","ended_on":"form submission","duration":5501.067999998511,"time_run":24269.60000000149,"time_render":24257.665,"time_show":24274.332,"time_end":29775.39999999851,"time_commit":29776.20000000298,"timestamp":"2023-07-20T10:27:28.697Z","time_switch":29805.887},{"sender":"Symptoms form","sender_type":"html.Form","sender_id":"2","Headache value":"1","Headache relation":"1","Neck pain value":"1","Neck pain relation":"1","Tooth pain value":"1","Tooth pain relation":"1","Head value":"1","Head relation":"1","Itchiness value":"1","Itchiness relation":"1","Hearing changes value":"1","Hearing changes relation":"1","Speech value":"1","Speech relation":"1","Vision value":"1","Vision relation":"1","Twitching value":"1","Twitching relation":"1","Balance value":"1","Balance relation":"1","Hand value":"1","Hand relation":"1","Numbness value":"1","Numbness relation":"1","Tightness value":"1","Tightness relation":"1","Unusual feelings value":"1","Unusual feelings relation":"1","Anxious value":"1","Anxious relation":"1","Sleepiness value":"1","Sleepiness relation":"1","Attentional difficulties value":"1","Attentional difficulties relation":"1","Forgetful value":"1","Forgetful relation":"1","Nausea value":"1","Nausea relation":"1","Dizziness value":"1","Dizziness relation":"1","Other symptom":"","Other value":"1","Other relation":"1","Comments":"","ended_on":"form submission","duration":11652.613000000001,"time_run":29776.60000000149,"time_render":29772.44,"time_show":29805.887,"time_end":41458.5,"time_commit":41459.29999999702,"timestamp":"2023-07-20T10:27:40.380Z"}]
[{"url":{},"meta":{"labjs_version":"20.2.4","labjs_build":{"flavor":"production","commit":"f5b4a49f956347addd546a832a3327688c2c0fef"},"location":"https://jatos.plymouth.ac.uk/publix/928221aa-7485-4e64-965e-3630661b1f84/b296b92c-f4d1-46e2-b9a1-0bd035bf7456/start","userAgent":"Mozilla/5.0 (Windows NT 10.0; Win64; x64) AppleWebKit/537.36 (KHTML, like Gecko) Chrome/114.0.0.0 Safari/537.36","platform":"Win32","language":"en-US","locale":"en-US","timeZone":"Europe/London","timezoneOffset":-60,"screen_width":1366,"screen_height":768,"scroll_width":1518,"scroll_height":646,"window_innerWidth":1517,"window_innerHeight":694,"devicePixelRatio":0.8999999761581421},"sender":"BRIC & Study ID","sender_type":"html.Form","sender_id":"0","BRICID":"FNMA0105","studyID":"GNG","ended_on":"form submission","duration":10290.626999999628,"time_run":950.3999999994412,"time_render":935.058,"time_show":951.473,"time_end":11242.099999999627,"time_commit":11242.399999999441,"timestamp":"2023-07-14T12:09:04.480Z","time_switch":11250.964},{"sender":"Context form","sender_type":"html.Form","sender_id":"1","todayDate":"2023-07-14","Date of visit":"2023-07-14","stimulation_type":"TUS","":"","ended_on":"form submission","duration":5113.536,"time_run":11242.599999999627,"time_render":11234.237,"time_show":11250.964,"time_end":16364.5,"time_commit":16364.700000000186,"timestamp":"2023-07-14T12:09:09.602Z","time_switch":16367.377},{"sender":"Symptoms form","sender_type":"html.Form","sender_id":"2","Headache value":"1","Headache relation":"1","Neck pain value":"1","Neck pain relation":"1","Tooth pain value":"1","Tooth pain relation":"1","Head value":"1","Head relation":"1","Itchiness value":"1","Itchiness relation":"1","Hearing changes value":"1","Hearing changes relation":"1","Speech value":"1","Speech relation":"1","Vision value":"1","Vision relation":"1","Twitching value":"1","Twitching relation":"1","Balance value":"1","Balance relation":"1","Hand value":"1","Hand relation":"1","Numbness value":"1","Numbness relation":"1","Tightness value":"1","Tightness relation":"1","Unusual feelings value":"1","Unusual feelings relation":"1","Anxious value":"1","Anxious relation":"1","Sleepiness value":"1","Sleepiness relation":"1","Attentional difficulties value":"1","Attentional difficulties relation":"1","Forgetful value":"1","Forgetful relation":"1","Nausea value":"1","Nausea relation":"1","Dizziness value":"1","Dizziness relation":"1","Other symptom":"","Other value":"1","Other relation":"1","Comments":"","ended_on":"form submission","duration":32651.02299999944,"time_run":16364.700000000186,"time_render":16350.731,"time_show":16367.377,"time_end":49018.39999999944,"time_commit":49018.59999999963,"timestamp":"2023-07-14T12:09:42.256Z"}]
[{"url":{},"meta":{"labjs_version":"20.2.4","labjs_build":{"flavor":"production","commit":"f5b4a49f956347addd546a832a3327688c2c0fef"},"location":"https://jatos.plymouth.ac.uk/publix/723770fa-493e-4f28-8bae-578bacf6eb8f/b296b92c-f4d1-46e2-b9a1-0bd035bf7456/start","userAgent":"Mozilla/5.0 (Windows NT 10.0; Win64; x64) AppleWebKit/537.36 (KHTML, like Gecko) Chrome/114.0.0.0 Safari/537.36","platform":"Win32","language":"en-US","locale":"en-US","timeZone":"Europe/London","timezoneOffset":-60,"screen_width":1366,"screen_height":768,"scroll_width":1518,"scroll_height":646,"window_innerWidth":1517,"window_innerHeight":694,"devicePixelRatio":0.8999999761581421},"sender":"BRIC & Study ID","sender_type":"html.Form","sender_id":"0","BRICID":"SSTO0540","studyID":"GNG","ended_on":"form submission","duration":180407.42300000013,"time_run":1316.2000000000698,"time_render":1289.578,"time_show":1324.077,"time_end":181731.50000000012,"time_commit":181731.79999999993,"timestamp":"2023-07-14T10:41:41.610Z","time_switch":181730.692},{"sender":"Context form","sender_type":"html.Form","sender_id":"1","todayDate":"2023-07-14","Date of visit":"2023-07-14","stimulation_type":"TUS","":"","ended_on":"form submission","duration":6100.50800000006,"time_run":181731.90000000002,"time_render":181714.215,"time_show":181730.692,"time_end":187831.20000000007,"time_commit":187832.09999999998,"timestamp":"2023-07-14T10:41:47.711Z","time_switch":187847.792},{"sender":"Symptoms form","sender_type":"html.Form","sender_id":"2","Headache value":"1","Headache relation":"1","Neck pain value":"1","Neck pain relation":"1","Tooth pain value":"1","Tooth pain relation":"1","Head value":"1","Head relation":"1","Itchiness value":"1","Itchiness relation":"1","Hearing changes value":"1","Hearing changes relation":"1","Speech value":"1","Speech relation":"1","Vision value":"1","Vision relation":"1","Twitching value":"1","Twitching relation":"1","Balance value":"1","Balance relation":"1","Hand value":"1","Hand relation":"1","Numbness value":"1","Numbness relation":"1","Tightness value":"1","Tightness relation":"1","Unusual feelings value":"1","Unusual feelings relation":"1","Anxious value":"1","Anxious relation":"1","Sleepiness value":"1","Sleepiness relation":"1","Attentional difficulties value":"1","Attentional difficulties relation":"1","Forgetful value":"1","Forgetful relation":"1","Nausea value":"1","Nausea relation":"1","Dizziness value":"1","Dizziness relation":"1","Other symptom":"","Other value":"1","Other relation":"1","Comments":"","ended_on":"form submission","duration":70090.70800000013,"time_run":187832.50000000012,"time_render":187813.866,"time_show":187847.792,"time_end":257938.50000000012,"time_commit":257939.29999999993,"timestamp":"2023-07-14T10:42:57.818Z"}]
[{"url":{},"meta":{"labjs_version":"20.2.4","labjs_build":{"flavor":"production","commit":"f5b4a49f956347addd546a832a3327688c2c0fef"},"location":"https://jatos.plymouth.ac.uk/publix/25faa69a-2d85-467a-99bc-f2feac840619/b296b92c-f4d1-46e2-b9a1-0bd035bf7456/start","userAgent":"Mozilla/5.0 (Windows NT 10.0; Win64; x64) AppleWebKit/537.36 (KHTML, like Gecko) Chrome/114.0.0.0 Safari/537.36","platform":"Win32","language":"en-US","locale":"en-US","timeZone":"Europe/London","timezoneOffset":-60,"screen_width":1366,"screen_height":768,"scroll_width":1466,"scroll_height":399,"window_innerWidth":1465,"window_innerHeight":398,"devicePixelRatio":0.8999999761581421},"sender":"BRIC & Study ID","sender_type":"html.Form","sender_id":"0","BRICID":"JYFD0098","studyID":"GNG","ended_on":"form submission","duration":43071.759,"time_run":1272.800000011921,"time_render":1264.118,"time_show":1280.741,"time_end":44352.5,"time_commit":44353.59999999404,"timestamp":"2023-07-10T12:18:39.033Z","time_switch":44362.136},{"sender":"Context form","sender_type":"html.Form","sender_id":"1","todayDate":"2023-07-10","Date of visit":"2023-07-10","stimulation_type":"TUS","":"","ended_on":"form submission","duration":43399.864,"time_run":44354.30000001192,"time_render":44345.489,"time_show":44362.136,"time_end":87762,"time_commit":87762.70000001788,"timestamp":"2023-07-10T12:19:22.442Z","time_switch":87793.328},{"sender":"Symptoms form","sender_type":"html.Form","sender_id":"2","Headache value":"1","Headache relation":"1","Neck pain value":"1","Neck pain relation":"1","Tooth pain value":"1","Tooth pain relation":"1","Head value":"1","Head relation":"1","Itchiness value":"1","Itchiness relation":"1","Hearing changes value":"1","Hearing changes relation":"1","Speech value":"1","Speech relation":"1","Vision value":"1","Vision relation":"1","Twitching value":"1","Twitching relation":"1","Balance value":"1","Balance relation":"1","Hand value":"1","Hand relation":"1","Numbness value":"1","Numbness relation":"1","Tightness value":"1","Tightness relation":"1","Unusual feelings value":"1","Unusual feelings relation":"1","Anxious value":"1","Anxious relation":"1","Sleepiness value":"2","Sleepiness relation":"1","Attentional difficulties value":"1","Attentional difficulties relation":"1","Forgetful value":"1","Forgetful relation":"1","Nausea value":"1","Nausea relation":"1","Dizziness value":"1","Dizziness relation":"1","Other symptom":"","Other value":"1","Other relation":"1","Comments":"Tiredness (increased sleepiness) - not from study, from work on-call.","ended_on":"form submission","duration":77325.07200000597,"time_run":87763.09999999404,"time_render":87776.85,"time_show":87793.328,"time_end":165118.40000000596,"time_commit":165118.59999999404,"timestamp":"2023-07-10T12:20:39.798Z"}]
[{"url":{},"meta":{"labjs_version":"20.2.4","labjs_build":{"flavor":"production","commit":"f5b4a49f956347addd546a832a3327688c2c0fef"},"location":"https://jatos.plymouth.ac.uk/publix/a3b3011c-3519-471d-b958-34b130011526/b296b92c-f4d1-46e2-b9a1-0bd035bf7456/start","userAgent":"Mozilla/5.0 (Windows NT 10.0; Win64; x64) AppleWebKit/537.36 (KHTML, like Gecko) Chrome/114.0.0.0 Safari/537.36","platform":"Win32","language":"en-US","locale":"en-US","timeZone":"Europe/London","timezoneOffset":-60,"screen_width":1366,"screen_height":768,"scroll_width":1518,"scroll_height":646,"window_innerWidth":1517,"window_innerHeight":694,"devicePixelRatio":0.8999999761581421},"sender":"BRIC & Study ID","sender_type":"html.Form","sender_id":"0","BRICID":"LECA0624","studyID":"GNG","ended_on":"form submission","duration":25029.919999952315,"time_run":950.7000000476837,"time_render":937.751,"time_show":954.38,"time_end":25984.299999952316,"time_commit":25984.700000047684,"timestamp":"2023-07-03T12:44:09.690Z","time_switch":25986.497},{"sender":"Context form","sender_type":"html.Form","sender_id":"1","todayDate":"2023-07-03","Date of visit":"2023-07-03","stimulation_type":"TUS","":"","ended_on":"form submission","duration":7602.802999952317,"time_run":25984.899999976158,"time_render":25969.89,"time_show":25986.497,"time_end":33589.299999952316,"time_commit":33589.799999952316,"timestamp":"2023-07-03T12:44:17.295Z","time_switch":33602.915},{"sender":"Symptoms form","sender_type":"html.Form","sender_id":"2","Headache value":"1","Headache relation":"1","Neck pain value":"1","Neck pain relation":"1","Tooth pain value":"1","Tooth pain relation":"1","Head value":"1","Head relation":"1","Itchiness value":"1","Itchiness relation":"1","Hearing changes value":"1","Hearing changes relation":"1","Speech value":"1","Speech relation":"1","Vision value":"1","Vision relation":"1","Twitching value":"1","Twitching relation":"1","Balance value":"1","Balance relation":"1","Hand value":"1","Hand relation":"1","Numbness value":"1","Numbness relation":"1","Tightness value":"1","Tightness relation":"1","Unusual feelings value":"1","Unusual feelings relation":"1","Anxious value":"1","Anxious relation":"1","Sleepiness value":"1","Sleepiness relation":"1","Attentional difficulties value":"1","Attentional difficulties relation":"1","Forgetful value":"1","Forgetful relation":"1","Nausea value":"1","Nausea relation":"1","Dizziness value":"1","Dizziness relation":"1","Other symptom":"","Other value":"1","Other relation":"1","Comments":"","ended_on":"form submission","duration":82215.38499995231,"time_run":33590,"time_render":33586.167,"time_show":33602.915,"time_end":115818.29999995232,"time_commit":115819.20000004768,"timestamp":"2023-07-03T12:45:39.525Z"}]
[{"url":{},"meta":{"labjs_version":"20.2.4","labjs_build":{"flavor":"production","commit":"f5b4a49f956347addd546a832a3327688c2c0fef"},"location":"https://jatos.plymouth.ac.uk/publix/ccc63074-6253-4183-82e3-df8f0abc9282/b296b92c-f4d1-46e2-b9a1-0bd035bf7456/start","userAgent":"Mozilla/5.0 (Windows NT 10.0; Win64; x64) AppleWebKit/537.36 (KHTML, like Gecko) Chrome/114.0.0.0 Safari/537.36","platform":"Win32","language":"en-US","locale":"en-US","timeZone":"Europe/London","timezoneOffset":-60,"screen_width":1366,"screen_height":768,"scroll_width":1518,"scroll_height":646,"window_innerWidth":1517,"window_innerHeight":694,"devicePixelRatio":0.8999999761581421},"sender":"BRIC & Study ID","sender_type":"html.Form","sender_id":"0","BRICID":"KLWT0036","studyID":"GNG","ended_on":"form submission","duration":21675.433999976158,"time_run":1451.1000000238419,"time_render":1433.365,"time_show":1449.966,"time_end":23125.399999976158,"time_commit":23126,"timestamp":"2023-07-03T10:57:40.260Z","time_switch":23132.361},{"sender":"Context form","sender_type":"html.Form","sender_id":"1","todayDate":"2023-07-03","Date of visit":"2023-07-03","stimulation_type":"TUS","":"","ended_on":"form submission","duration":5592.239000023841,"time_run":23126.299999952316,"time_render":23115.69,"time_show":23132.361,"time_end":28724.600000023842,"time_commit":28725.399999976158,"timestamp":"2023-07-03T10:57:45.860Z","time_switch":28748.734},{"sender":"Symptoms form","sender_type":"html.Form","sender_id":"2","Headache value":"1","Headache relation":"1","Neck pain value":"1","Neck pain relation":"1","Tooth pain value":"1","Tooth pain relation":"1","Head value":"1","Head relation":"1","Itchiness value":"1","Itchiness relation":"1","Hearing changes value":"1","Hearing changes relation":"1","Speech value":"1","Speech relation":"1","Vision value":"1","Vision relation":"1","Twitching value":"1","Twitching relation":"1","Balance value":"1","Balance relation":"1","Hand value":"1","Hand relation":"1","Numbness value":"1","Numbness relation":"1","Tightness value":"1","Tightness relation":"1","Unusual feelings value":"1","Unusual feelings relation":"1","Anxious value":"1","Anxious relation":"1","Sleepiness value":"2","Sleepiness relation":"3","Attentional difficulties value":"1","Attentional difficulties relation":"1","Forgetful value":"1","Forgetful relation":"1","Nausea value":"1","Nausea relation":"1","Dizziness value":"1","Dizziness relation":"1","Other symptom":"","Other value":"1","Other relation":"1","Comments":"","ended_on":"form submission","duration":108154.56599995232,"time_run":28725.799999952316,"time_render":28715.43,"time_show":28748.734,"time_end":136903.29999995232,"time_commit":136903.60000002384,"timestamp":"2023-07-03T10:59:34.039Z"}]
[{"url":{},"meta":{"labjs_version":"20.2.4","labjs_build":{"flavor":"production","commit":"f5b4a49f956347addd546a832a3327688c2c0fef"},"location":"https://jatos.plymouth.ac.uk/publix/10a51cfd-c747-43dd-b2c0-e5ec441d65c9/b296b92c-f4d1-46e2-b9a1-0bd035bf7456/start","userAgent":"Mozilla/5.0 (Windows NT 10.0; Win64; x64) AppleWebKit/537.36 (KHTML, like Gecko) Chrome/114.0.0.0 Safari/537.36","platform":"Win32","language":"en-US","locale":"en-US","timeZone":"Europe/London","timezoneOffset":-60,"screen_width":1366,"screen_height":768,"scroll_width":1518,"scroll_height":646,"window_innerWidth":1517,"window_innerHeight":694,"devicePixelRatio":0.8999999761581421},"sender":"BRIC & Study ID","sender_type":"html.Form","sender_id":"0","BRICID":"DIVL0216","studyID":"GNG","ended_on":"form submission","duration":26203.54200002384,"time_run":1039.800000011921,"time_render":1023.612,"time_show":1040.058,"time_end":27243.600000023842,"time_commit":27244.69999998808,"timestamp":"2023-06-30T12:19:19.019Z","time_switch":27272.214},{"sender":"Context form","sender_type":"html.Form","sender_id":"1","todayDate":"2023-06-30","Date of visit":"2023-06-30","stimulation_type":"TUS","":"","ended_on":"form submission","duration":11195.685999976158,"time_run":27245.5,"time_render":27238.967,"time_show":27272.214,"time_end":38467.89999997616,"time_commit":38468.80000001192,"timestamp":"2023-06-30T12:19:30.243Z","time_switch":38505.028},{"sender":"Symptoms form","sender_type":"html.Form","sender_id":"2","Headache value":"1","Headache relation":"1","Neck pain value":"1","Neck pain relation":"1","Tooth pain value":"1","Tooth pain relation":"1","Head value":"1","Head relation":"1","Itchiness value":"1","Itchiness relation":"1","Hearing changes value":"1","Hearing changes relation":"1","Speech value":"1","Speech relation":"1","Vision value":"1","Vision relation":"1","Twitching value":"1","Twitching relation":"1","Balance value":"1","Balance relation":"1","Hand value":"1","Hand relation":"1","Numbness value":"1","Numbness relation":"1","Tightness value":"1","Tightness relation":"1","Unusual feelings value":"1","Unusual feelings relation":"1","Anxious value":"1","Anxious relation":"1","Sleepiness value":"3","Sleepiness relation":"1","Attentional difficulties value":"2","Attentional difficulties relation":"3","Forgetful value":"1","Forgetful relation":"1","Nausea value":"1","Nausea relation":"1","Dizziness value":"1","Dizziness relation":"1","Other symptom":"","Other value":"1","Other relation":"1","Comments":"","ended_on":"form submission","duration":38068.87199997616,"time_run":38469.19999998808,"time_render":38455.217,"time_show":38505.028,"time_end":76573.89999997616,"time_commit":76574.80000001192,"timestamp":"2023-06-30T12:20:08.348Z"}]
[{"url":{},"meta":{"labjs_version":"20.2.4","labjs_build":{"flavor":"production","commit":"f5b4a49f956347addd546a832a3327688c2c0fef"},"location":"https://jatos.plymouth.ac.uk/publix/1a4dd6bd-76f9-40fb-95cb-6fc4f77655da/b296b92c-f4d1-46e2-b9a1-0bd035bf7456/start","userAgent":"Mozilla/5.0 (Windows NT 10.0; Win64; x64) AppleWebKit/537.36 (KHTML, like Gecko) Chrome/114.0.0.0 Safari/537.36","platform":"Win32","language":"en-US","locale":"en-US","timeZone":"Europe/London","timezoneOffset":-60,"screen_width":1366,"screen_height":768,"scroll_width":1518,"scroll_height":646,"window_innerWidth":1517,"window_innerHeight":694,"devicePixelRatio":0.8999999761581421},"sender":"BRIC & Study ID","sender_type":"html.Form","sender_id":"0","BRICID":"ZHHS0560","studyID":"GNG","ended_on":"form submission","duration":16892.744999964238,"time_run":1041.8999999761581,"time_render":1018.836,"time_show":1035.355,"time_end":17928.099999964237,"time_commit":17928.5,"timestamp":"2023-06-28T15:07:27.972Z","time_switch":17934.608},{"sender":"Context form","sender_type":"html.Form","sender_id":"1","todayDate":"2023-06-28","Date of visit":"2023-06-28","stimulation_type":"TUS","":"","ended_on":"form submission","duration":5141.791999976158,"time_run":17928.80000001192,"time_render":17917.954,"time_show":17934.608,"time_end":23076.399999976158,"time_commit":23076.599999964237,"timestamp":"2023-06-28T15:07:33.120Z","time_switch":23084.365},{"sender":"Symptoms form","sender_type":"html.Form","sender_id":"2","Headache value":"1","Headache relation":"1","Neck pain value":"1","Neck pain relation":"1","Tooth pain value":"1","Tooth pain relation":"1","Head value":"1","Head relation":"1","Itchiness value":"1","Itchiness relation":"1","Hearing changes value":"1","Hearing changes relation":"1","Speech value":"1","Speech relation":"1","Vision value":"1","Vision relation":"1","Twitching value":"1","Twitching relation":"1","Balance value":"1","Balance relation":"1","Hand value":"1","Hand relation":"1","Numbness value":"1","Numbness relation":"1","Tightness value":"1","Tightness relation":"1","Unusual feelings value":"1","Unusual feelings relation":"1","Anxious value":"1","Anxious relation":"1","Sleepiness value":"1","Sleepiness relation":"1","Attentional difficulties value":"1","Attentional difficulties relation":"1","Forgetful value":"1","Forgetful relation":"1","Nausea value":"1","Nausea relation":"1","Dizziness value":"1","Dizziness relation":"1","Other symptom":"","Other value":"1","Other relation":"1","Comments":"","ended_on":"form submission","duration":8430.534999976157,"time_run":23076.69999998808,"time_render":23067.709,"time_show":23084.365,"time_end":31514.899999976158,"time_commit":31515.099999964237,"timestamp":"2023-06-28T15:07:41.558Z"}]
[{"url":{},"meta":{"labjs_version":"20.2.4","labjs_build":{"flavor":"production","commit":"f5b4a49f956347addd546a832a3327688c2c0fef"},"location":"https://jatos.plymouth.ac.uk/publix/006cd80c-5a72-4bea-a154-2b722156ac4c/b296b92c-f4d1-46e2-b9a1-0bd035bf7456/start","userAgent":"Mozilla/5.0 (Windows NT 10.0; Win64; x64) AppleWebKit/537.36 (KHTML, like Gecko) Chrome/114.0.0.0 Safari/537.36","platform":"Win32","language":"en-US","locale":"en-US","timeZone":"Europe/London","timezoneOffset":-60,"screen_width":1366,"screen_height":768,"scroll_width":1466,"scroll_height":399,"window_innerWidth":1465,"window_innerHeight":398,"devicePixelRatio":0.8999999761581421},"sender":"BRIC & Study ID","sender_type":"html.Form","sender_id":"0","BRICID":"DIVL0216","studyID":"GNG","ended_on":"form submission","duration":15355.042000095367,"time_run":1198.9000000953674,"time_render":1179.732,"time_show":1196.358,"time_end":16551.400000095367,"time_commit":16551.600000023842,"timestamp":"2023-06-22T12:01:34.884Z","time_switch":16562.299},{"sender":"Context form","sender_type":"html.Form","sender_id":"1","todayDate":"2023-06-22","Date of visit":"2023-06-22","stimulation_type":"TUS","":"","ended_on":"form submission","duration":282094.4010000477,"time_run":16551.900000095367,"time_render":16545.675,"time_show":16562.299,"time_end":298656.7000000477,"time_commit":298657.10000002384,"timestamp":"2023-06-22T12:06:16.990Z","time_switch":298665.932},{"sender":"Symptoms form","sender_type":"html.Form","sender_id":"2","Headache value":"2","Headache relation":"1","Neck pain value":"1","Neck pain relation":"1","Tooth pain value":"1","Tooth pain relation":"1","Head value":"1","Head relation":"1","Itchiness value":"2","Itchiness relation":"4","Hearing changes value":"1","Hearing changes relation":"1","Speech value":"1","Speech relation":"1","Vision value":"1","Vision relation":"1","Twitching value":"1","Twitching relation":"1","Balance value":"1","Balance relation":"1","Hand value":"1","Hand relation":"1","Numbness value":"1","Numbness relation":"1","Tightness value":"1","Tightness relation":"1","Unusual feelings value":"1","Unusual feelings relation":"1","Anxious value":"1","Anxious relation":"1","Sleepiness value":"3","Sleepiness relation":"1","Attentional difficulties value":"1","Attentional difficulties relation":"1","Forgetful value":"1","Forgetful relation":"1","Nausea value":"1","Nausea relation":"1","Dizziness value":"1","Dizziness relation":"1","Other symptom":"","Other value":"1","Other relation":"1","Comments":"","ended_on":"form submission","duration":63419.66800002387,"time_run":298657.3000000715,"time_render":298649.302,"time_show":298665.932,"time_end":362085.60000002384,"time_commit":362085.8000000715,"timestamp":"2023-06-22T12:07:20.353Z"}]
[{"url":{},"meta":{"labjs_version":"20.2.4","labjs_build":{"flavor":"production","commit":"f5b4a49f956347addd546a832a3327688c2c0fef"},"location":"https://jatos.plymouth.ac.uk/publix/b0d141b3-6739-499e-b9a4-c01ec2df0a6c/b296b92c-f4d1-46e2-b9a1-0bd035bf7456/start","userAgent":"Mozilla/5.0 (Windows NT 10.0; Win64; x64) AppleWebKit/537.36 (KHTML, like Gecko) Chrome/114.0.0.0 Safari/537.36","platform":"Win32","language":"en-US","locale":"en-US","timeZone":"Europe/London","timezoneOffset":-60,"screen_width":1366,"screen_height":768,"scroll_width":1499,"scroll_height":628,"window_innerWidth":1498,"window_innerHeight":675,"devicePixelRatio":0.8999999761581421},"sender":"BRIC & Study ID","sender_type":"html.Form","sender_id":"0","BRICID":"ZHHS0560","studyID":"GNG","ended_on":"form submission","duration":1774422.287,"time_run":1969.9000000357628,"time_render":1935.051,"time_show":2001.713,"time_end":1776424,"time_commit":1776424.300000012,"timestamp":"2023-06-19T12:09:22.257Z","time_switch":1776441.068},{"sender":"Context form","sender_type":"html.Form","sender_id":"1","todayDate":"2023-06-19","Date of visit":"2023-06-19","stimulation_type":"TUS","":"","ended_on":"form submission","duration":6842.032000023872,"time_run":1776424.800000012,"time_render":1776424.58,"time_show":1776441.068,"time_end":1783283.1000000238,"time_commit":1783283.6000000238,"timestamp":"2023-06-19T12:09:29.116Z","time_switch":1783290.83},{"sender":"Symptoms form","sender_type":"html.Form","sender_id":"2","Headache value":"1","Headache relation":"1","Neck pain value":"1","Neck pain relation":"1","Tooth pain value":"1","Tooth pain relation":"1","Head value":"1","Head relation":"1","Itchiness value":"1","Itchiness relation":"1","Hearing changes value":"1","Hearing changes relation":"1","Speech value":"1","Speech relation":"1","Vision value":"1","Vision relation":"1","Twitching value":"1","Twitching relation":"1","Balance value":"1","Balance relation":"1","Hand value":"1","Hand relation":"1","Numbness value":"1","Numbness relation":"1","Tightness value":"1","Tightness relation":"1","Unusual feelings value":"1","Unusual feelings relation":"1","Anxious value":"1","Anxious relation":"1","Sleepiness value":"1","Sleepiness relation":"1","Attentional difficulties value":"1","Attentional difficulties relation":"1","Forgetful value":"1","Forgetful relation":"1","Nausea value":"1","Nausea relation":"1","Dizziness value":"1","Dizziness relation":"1","Other symptom":"","Other value":"1","Other relation":"1","Comments":"","ended_on":"form submission","duration":41931.27000002377,"time_run":1783283.9000000358,"time_render":1783274.329,"time_show":1783290.83,"time_end":1825222.1000000238,"time_commit":1825222.4000000358,"timestamp":"2023-06-19T12:10:11.054Z"}]
[{"url":{},"meta":{"labjs_version":"20.2.4","labjs_build":{"flavor":"production","commit":"f5b4a49f956347addd546a832a3327688c2c0fef"},"location":"https://jatos.plymouth.ac.uk/publix/567415b5-f611-4c16-a356-14dd1ba3dfbe/b296b92c-f4d1-46e2-b9a1-0bd035bf7456/start","userAgent":"Mozilla/5.0 (Windows NT 10.0; Win64; x64) AppleWebKit/537.36 (KHTML, like Gecko) Chrome/114.0.0.0 Safari/537.36","platform":"Win32","language":"en-US","locale":"en-US","timeZone":"Europe/London","timezoneOffset":-60,"screen_width":1366,"screen_height":768,"scroll_width":1499,"scroll_height":628,"window_innerWidth":1498,"window_innerHeight":675,"devicePixelRatio":0.8999999761581421},"sender":"BRIC & Study ID","sender_type":"html.Form","sender_id":"0","BRICID":"JYDF0098","studyID":"gng","ended_on":"form submission","duration":47879.93799998808,"time_run":974.3999999761581,"time_render":964.68,"time_show":981.262,"time_end":48861.19999998808,"time_commit":48862.5,"timestamp":"2023-06-19T11:00:17.412Z","time_switch":48862.622},{"sender":"Context form","sender_type":"html.Form","sender_id":"1","todayDate":"2023-06-19","Date of visit":"2023-06-19","stimulation_type":"TUS","":"","ended_on":"form submission","duration":8753.178000011918,"time_run":48862.69999998808,"time_render":48845.873,"time_show":48862.622,"time_end":57615.80000001192,"time_commit":57616.69999998808,"timestamp":"2023-06-19T11:00:26.165Z","time_switch":57645.348},{"sender":"Symptoms form","sender_type":"html.Form","sender_id":"2","Headache value":"1","Headache relation":"1","Neck pain value":"1","Neck pain relation":"1","Tooth pain value":"1","Tooth pain relation":"1","Head value":"1","Head relation":"1","Itchiness value":"1","Itchiness relation":"1","Hearing changes value":"1","Hearing changes relation":"1","Speech value":"1","Speech relation":"1","Vision value":"1","Vision relation":"1","Twitching value":"1","Twitching relation":"1","Balance value":"1","Balance relation":"1","Hand value":"1","Hand relation":"1","Numbness value":"1","Numbness relation":"1","Tightness value":"1","Tightness relation":"1","Unusual feelings value":"1","Unusual feelings relation":"1","Anxious value":"1","Anxious relation":"1","Sleepiness value":"2","Sleepiness relation":"1","Attentional difficulties value":"2","Attentional difficulties relation":"1","Forgetful value":"1","Forgetful relation":"1","Nausea value":"1","Nausea relation":"1","Dizziness value":"1","Dizziness relation":"1","Other symptom":"","Other value":"1","Other relation":"1","Comments":"slightly fatigued / tired, due to work/lifestyle not study.","ended_on":"form submission","duration":76026.05199997616,"time_run":57617.10000002384,"time_render":57612.011,"time_show":57645.348,"time_end":133671.39999997616,"time_commit":133672.5,"timestamp":"2023-06-19T11:01:42.222Z"}]
[{"url":{},"meta":{"labjs_version":"20.2.4","labjs_build":{"flavor":"production","commit":"f5b4a49f956347addd546a832a3327688c2c0fef"},"location":"https://jatos.plymouth.ac.uk/publix/09d0b88d-b926-4a1a-9ea1-8887e177b127/b296b92c-f4d1-46e2-b9a1-0bd035bf7456/start","userAgent":"Mozilla/5.0 (Windows NT 10.0; Win64; x64) AppleWebKit/537.36 (KHTML, like Gecko) Chrome/114.0.0.0 Safari/537.36","platform":"Win32","language":"en-US","locale":"en-US","timeZone":"Europe/London","timezoneOffset":-60,"screen_width":1366,"screen_height":768,"scroll_width":1500,"scroll_height":628,"window_innerWidth":1500,"window_innerHeight":675,"devicePixelRatio":0.8999999761581421},"sender":"BRIC & Study ID","sender_type":"html.Form","sender_id":"0","BRICID":"bnvn0020","studyID":"","ended_on":"form submission","duration":2420831.3769999524,"time_run":1294.2999999523163,"time_render":1270.779,"time_show":1287.423,"time_end":2422118.7999999523,"time_commit":2422119.0999999046,"timestamp":"2023-06-15T12:39:44.412Z","time_switch":2422130.415},{"sender":"Context form","sender_type":"html.Form","sender_id":"1","todayDate":"2023-06-15","Date of visit":"2023-06-15","stimulation_type":"TUS","":"","ended_on":"form submission","duration":37168.48499985691,"time_run":2422119.2000000477,"time_render":2422113.705,"time_show":2422130.415,"time_end":2459298.899999857,"time_commit":2459299.0999999046,"timestamp":"2023-06-15T12:40:21.592Z","time_switch":2459312.029},{"sender":"Symptoms form","sender_type":"html.Form","sender_id":"2","Headache value":"1","Headache relation":"1","Neck pain value":"1","Neck pain relation":"1","Tooth pain value":"1","Tooth pain relation":"1","Head value":"1","Head relation":"1","Itchiness value":"1","Itchiness relation":"1","Hearing changes value":"1","Hearing changes relation":"1","Speech value":"1","Speech relation":"1","Vision value":"1","Vision relation":"1","Twitching value":"1","Twitching relation":"1","Balance value":"1","Balance relation":"1","Hand value":"1","Hand relation":"1","Numbness value":"1","Numbness relation":"1","Tightness value":"1","Tightness relation":"1","Unusual feelings value":"1","Unusual feelings relation":"1","Anxious value":"1","Anxious relation":"1","Sleepiness value":"1","Sleepiness relation":"1","Attentional difficulties value":"1","Attentional difficulties relation":"1","Forgetful value":"1","Forgetful relation":"1","Nausea value":"1","Nausea relation":"1","Dizziness value":"1","Dizziness relation":"1","Other symptom":"","Other value":"1","Other relation":"1","Comments":"ALL GOOD","ended_on":"form submission","duration":23774.870999856852,"time_run":2459299.2000000477,"time_render":2459295.406,"time_show":2459312.029,"time_end":2483086.899999857,"time_commit":2483087.2000000477,"timestamp":"2023-06-15T12:40:45.381Z"}]
[{"url":{},"meta":{"labjs_version":"20.2.4","labjs_build":{"flavor":"production","commit":"f5b4a49f956347addd546a832a3327688c2c0fef"},"location":"https://jatos.plymouth.ac.uk/publix/5bf9c32a-0189-4116-9ba8-4cc9b1e3a0dd/b296b92c-f4d1-46e2-b9a1-0bd035bf7456/start","userAgent":"Mozilla/5.0 (Windows NT 10.0; Win64; x64) AppleWebKit/537.36 (KHTML, like Gecko) Chrome/114.0.0.0 Safari/537.36","platform":"Win32","language":"en-US","locale":"en-US","timeZone":"Europe/London","timezoneOffset":-60,"screen_width":1366,"screen_height":768,"scroll_width":1518,"scroll_height":646,"window_innerWidth":1517,"window_innerHeight":694,"devicePixelRatio":0.8999999761581421},"sender":"BRIC & Study ID","sender_type":"html.Form","sender_id":"0","BRICID":"LIML0315","studyID":"","ended_on":"form submission","duration":187322.2020000477,"time_run":1241.1000001430511,"time_render":1229.114,"time_show":1245.498,"time_end":188567.70000004768,"time_commit":188568.10000014305,"timestamp":"2023-06-15T10:37:59.189Z","time_switch":188586.962},{"sender":"Context form","sender_type":"html.Form","sender_id":"1","todayDate":"2023-06-15","Date of visit":"2023-06-15","stimulation_type":"TUS","":"","ended_on":"form submission","duration":4125.138000143052,"time_run":188568.40000009537,"time_render":188553.904,"time_show":188586.962,"time_end":192712.10000014305,"time_commit":192712.5,"timestamp":"2023-06-15T10:38:03.334Z","time_switch":192736.769},{"sender":"Symptoms form","sender_type":"html.Form","sender_id":"2","Headache value":"1","Headache relation":"1","Neck pain value":"1","Neck pain relation":"1","Tooth pain value":"1","Tooth pain relation":"1","Head value":"1","Head relation":"1","Itchiness value":"1","Itchiness relation":"1","Hearing changes value":"1","Hearing changes relation":"1","Speech value":"1","Speech relation":"1","Vision value":"1","Vision relation":"1","Twitching value":"1","Twitching relation":"1","Balance value":"1","Balance relation":"1","Hand value":"1","Hand relation":"1","Numbness value":"1","Numbness relation":"1","Tightness value":"1","Tightness relation":"1","Unusual feelings value":"1","Unusual feelings relation":"1","Anxious value":"1","Anxious relation":"1","Sleepiness value":"1","Sleepiness relation":"1","Attentional difficulties value":"1","Attentional difficulties relation":"1","Forgetful value":"1","Forgetful relation":"1","Nausea value":"1","Nausea relation":"1","Dizziness value":"1","Dizziness relation":"1","Other symptom":"","Other value":"1","Other relation":"1","Comments":"","ended_on":"form submission","duration":2754.0310001907346,"time_run":192712.70000004768,"time_render":192703.755,"time_show":192736.769,"time_end":195490.80000019073,"time_commit":195491.30000019073,"timestamp":"2023-06-15T10:38:06.113Z"}]
[{"url":{},"meta":{"labjs_version":"20.2.4","labjs_build":{"flavor":"production","commit":"f5b4a49f956347addd546a832a3327688c2c0fef"},"location":"https://jatos.plymouth.ac.uk/publix/3b01d6c0-c750-4333-8bdb-48e8b92517a9/b296b92c-f4d1-46e2-b9a1-0bd035bf7456/start","userAgent":"Mozilla/5.0 (Macintosh; Intel Mac OS X 10_12_6) AppleWebKit/537.36 (KHTML, like Gecko) Chrome/103.0.0.0 Safari/537.36","platform":"MacIntel","language":"en-GB","locale":"en-GB","timeZone":"Europe/London","timezoneOffset":-60,"screen_width":1280,"screen_height":800,"scroll_width":1210,"scroll_height":597,"window_innerWidth":1210,"window_innerHeight":645,"devicePixelRatio":2},"sender":"BRIC & Study ID","sender_type":"html.Form","sender_id":"0","BRICID":"test","studyID":"","ended_on":"form submission","duration":4687.99100000447,"time_run":2244.10000000149,"time_render":2220.135,"time_show":2236.809,"time_end":6924.80000000447,"time_commit":6925.39999999851,"timestamp":"2023-06-14T08:59:16.805Z","time_switch":6938.877},{"sender":"Context form","sender_type":"html.Form","sender_id":"1","todayDate":"2023-06-14","Date of visit":"2023-06-14","stimulation_type":"TUS","":"","ended_on":"form submission","duration":4308.72300000149,"time_run":6925.80000000447,"time_render":6922.203,"time_show":6938.877,"time_end":11247.60000000149,"time_commit":11248,"timestamp":"2023-06-14T08:59:21.127Z","time_switch":11251.062},{"sender":"Symptoms form","sender_type":"html.Form","sender_id":"2","Headache value":"1","Headache relation":"1","Neck pain value":"1","Neck pain relation":"1","Tooth pain value":"1","Tooth pain relation":"1","Head value":"1","Head relation":"1","Itchiness value":"1","Itchiness relation":"1","Hearing changes value":"1","Hearing changes relation":"1","Speech value":"1","Speech relation":"1","Vision value":"1","Vision relation":"1","Twitching value":"1","Twitching relation":"1","Balance value":"1","Balance relation":"1","Hand value":"1","Hand relation":"1","Numbness value":"1","Numbness relation":"1","Tightness value":"1","Tightness relation":"1","Unusual feelings value":"1","Unusual feelings relation":"1","Anxious value":"1","Anxious relation":"1","Sleepiness value":"1","Sleepiness relation":"1","Attentional difficulties value":"1","Attentional difficulties relation":"1","Forgetful value":"1","Forgetful relation":"1","Nausea value":"1","Nausea relation":"1","Dizziness value":"1","Dizziness relation":"1","Other symptom":"","Other value":"1","Other relation":"1","Comments":"","ended_on":"form submission","duration":3092.2380000044705,"time_run":11248.30000000447,"time_render":11234.388,"time_show":11251.062,"time_end":14343.30000000447,"time_commit":14343.89999999851,"timestamp":"2023-06-14T08:59:24.223Z"}]
[{"url":{},"meta":{"labjs_version":"20.2.4","labjs_build":{"flavor":"production","commit":"f5b4a49f956347addd546a832a3327688c2c0fef"},"location":"https://jatos.plymouth.ac.uk/publix/d622cd25-2b00-40e5-b3b4-e1a7c0e95edf/b296b92c-f4d1-46e2-b9a1-0bd035bf7456/start","userAgent":"Mozilla/5.0 (Windows NT 10.0; Win64; x64) AppleWebKit/537.36 (KHTML, like Gecko) Chrome/113.0.0.0 Safari/537.36","platform":"Win32","language":"en-US","locale":"en-US","timeZone":"Europe/London","timezoneOffset":-60,"screen_width":1366,"screen_height":768,"scroll_width":1518,"scroll_height":646,"window_innerWidth":1517,"window_innerHeight":694,"devicePixelRatio":0.8999999761581421},"sender":"BRIC & Study ID","sender_type":"html.Form","sender_id":"0","BRICID":"MRMH0014","studyID":"GNG","ended_on":"form submission","duration":1921408.6910000357,"time_run":1115.800000011921,"time_render":1108.553,"time_show":1125.209,"time_end":1922533.9000000358,"time_commit":1922534.5,"timestamp":"2023-05-25T12:09:53.868Z","time_switch":1922569.594},{"sender":"Context form","sender_type":"html.Form","sender_id":"1","todayDate":"2023-05-25","Date of visit":"2023-05-25","stimulation_type":"TUS","":"","ended_on":"form submission","duration":5579.006000023801,"time_run":1922534.9000000358,"time_render":1922552.865,"time_show":1922569.594,"time_end":1928148.6000000238,"time_commit":1928149.5,"timestamp":"2023-05-25T12:09:59.483Z","time_switch":1928169.249},{"sender":"Symptoms form","sender_type":"html.Form","sender_id":"2","Headache value":"1","Headache relation":"1","Neck pain value":"1","Neck pain relation":"1","Tooth pain value":"1","Tooth pain relation":"1","Head value":"1","Head relation":"1","Itchiness value":"1","Itchiness relation":"1","Hearing changes value":"1","Hearing changes relation":"1","Speech value":"1","Speech relation":"1","Vision value":"1","Vision relation":"1","Twitching value":"1","Twitching relation":"1","Balance value":"1","Balance relation":"1","Hand value":"1","Hand relation":"1","Numbness value":"1","Numbness relation":"1","Tightness value":"1","Tightness relation":"1","Unusual feelings value":"1","Unusual feelings relation":"1","Anxious value":"1","Anxious relation":"1","Sleepiness value":"1","Sleepiness relation":"1","Attentional difficulties value":"1","Attentional difficulties relation":"1","Forgetful value":"1","Forgetful relation":"1","Nausea value":"1","Nausea relation":"1","Dizziness value":"1","Dizziness relation":"1","Other symptom":"","Other value":"1","Other relation":"1","Comments":"No","ended_on":"form submission","duration":31863.651000035694,"time_run":1928150,"time_render":1928136.053,"time_show":1928169.249,"time_end":1960032.9000000358,"time_commit":1960033.9000000358,"timestamp":"2023-05-25T12:10:31.367Z"}]
[{"url":{},"meta":{"labjs_version":"20.2.4","labjs_build":{"flavor":"production","commit":"f5b4a49f956347addd546a832a3327688c2c0fef"},"location":"https://jatos.plymouth.ac.uk/publix/60022ac2-ed6c-4cc1-8402-a067cd66d24b/b296b92c-f4d1-46e2-b9a1-0bd035bf7456/start","userAgent":"Mozilla/5.0 (Windows NT 10.0; Win64; x64) AppleWebKit/537.36 (KHTML, like Gecko) Chrome/113.0.0.0 Safari/537.36","platform":"Win32","language":"en-US","locale":"en-US","timeZone":"Europe/London","timezoneOffset":-60,"screen_width":1920,"screen_height":1080,"scroll_width":1920,"scroll_height":921,"window_innerWidth":1920,"window_innerHeight":969,"devicePixelRatio":1},"sender":"BRIC & Study ID","sender_type":"html.Form","sender_id":"0","BRICID":"LIML0315","studyID":"gng","ended_on":"form submission","duration":31295.219000047684,"time_run":1177.9000000357628,"time_render":1161.323,"time_show":1177.981,"time_end":32473.200000047684,"time_commit":32473.5,"timestamp":"2023-05-25T10:27:39.750Z","time_switch":32477.55},{"sender":"Context form","sender_type":"html.Form","sender_id":"1","todayDate":"2023-05-25","Date of visit":"2023-05-25","stimulation_type":"TUS","":"","ended_on":"form submission","duration":4002.8500000357635,"time_run":32473.600000023842,"time_render":32461.153,"time_show":32477.55,"time_end":36480.40000003576,"time_commit":36480.5,"timestamp":"2023-05-25T10:27:43.757Z","time_switch":36494.08},{"sender":"Symptoms form","sender_type":"html.Form","sender_id":"2","Headache value":"1","Headache relation":"1","Neck pain value":"1","Neck pain relation":"1","Tooth pain value":"1","Tooth pain relation":"1","Head value":"1","Head relation":"1","Itchiness value":"1","Itchiness relation":"1","Hearing changes value":"1","Hearing changes relation":"1","Speech value":"1","Speech relation":"1","Vision value":"1","Vision relation":"1","Twitching value":"1","Twitching relation":"1","Balance value":"1","Balance relation":"1","Hand value":"1","Hand relation":"1","Numbness value":"1","Numbness relation":"1","Tightness value":"1","Tightness relation":"1","Unusual feelings value":"1","Unusual feelings relation":"1","Anxious value":"1","Anxious relation":"1","Sleepiness value":"1","Sleepiness relation":"1","Attentional difficulties value":"1","Attentional difficulties relation":"1","Forgetful value":"1","Forgetful relation":"1","Nausea value":"1","Nausea relation":"1","Dizziness value":"1","Dizziness relation":"1","Other symptom":"","Other value":"1","Other relation":"1","Comments":"","ended_on":"form submission","duration":2186.620000047682,"time_run":36480.700000047684,"time_render":36477.648,"time_show":36494.08,"time_end":38680.700000047684,"time_commit":38680.90000003576,"timestamp":"2023-05-25T10:27:45.957Z"}]
[{"url":{},"meta":{"labjs_version":"20.2.4","labjs_build":{"flavor":"production","commit":"f5b4a49f956347addd546a832a3327688c2c0fef"},"location":"https://jatos.plymouth.ac.uk/publix/b0ab894a-facd-47c1-9112-a7fefaf90324/b296b92c-f4d1-46e2-b9a1-0bd035bf7456/start","userAgent":"Mozilla/5.0 (Windows NT 10.0; Win64; x64) AppleWebKit/537.36 (KHTML, like Gecko) Chrome/113.0.0.0 Safari/537.36","platform":"Win32","language":"en-US","locale":"en-US","timeZone":"Europe/London","timezoneOffset":-60,"screen_width":1366,"screen_height":768,"scroll_width":1518,"scroll_height":646,"window_innerWidth":1517,"window_innerHeight":694,"devicePixelRatio":0.8999999761581421},"sender":"BRIC & Study ID","sender_type":"html.Form","sender_id":"0","BRICID":"TRWL0072","studyID":"GNG","ended_on":"form submission","duration":41723.79900000298,"time_run":1055.1000000014901,"time_render":1045.277,"time_show":1061.901,"time_end":42785.70000000298,"time_commit":42786.20000000298,"timestamp":"2023-05-22T11:33:34.255Z","time_switch":42793.226},{"sender":"Context form","sender_type":"html.Form","sender_id":"1","todayDate":"2023-05-22","Date of visit":"2023-05-22","stimulation_type":"TUS","":"","ended_on":"form submission","duration":2116664.3740000017,"time_run":42786.30000000447,"time_render":42776.688,"time_show":42793.226,"time_end":2159457.6000000015,"time_commit":2159458.900000006,"timestamp":"2023-05-22T12:08:50.938Z","time_switch":2159488.193},{"sender":"Symptoms form","sender_type":"html.Form","sender_id":"2","Headache value":"1","Headache relation":"1","Neck pain value":"1","Neck pain relation":"1","Tooth pain value":"1","Tooth pain relation":"1","Head value":"1","Head relation":"1","Itchiness value":"1","Itchiness relation":"1","Hearing changes value":"1","Hearing changes relation":"1","Speech value":"1","Speech relation":"1","Vision value":"1","Vision relation":"1","Twitching value":"1","Twitching relation":"1","Balance value":"1","Balance relation":"1","Hand value":"1","Hand relation":"1","Numbness value":"1","Numbness relation":"1","Tightness value":"1","Tightness relation":"1","Unusual feelings value":"1","Unusual feelings relation":"1","Anxious value":"1","Anxious relation":"1","Sleepiness value":"2","Sleepiness relation":"1","Attentional difficulties value":"1","Attentional difficulties relation":"1","Forgetful value":"1","Forgetful relation":"1","Nausea value":"1","Nausea relation":"1","Dizziness value":"1","Dizziness relation":"1","Other symptom":"","Other value":"1","Other relation":"1","Comments":"","ended_on":"form submission","duration":51579.30700000003,"time_run":2159459.6000000015,"time_render":2159471.551,"time_show":2159488.193,"time_end":2211067.5,"time_commit":2211068.200000003,"timestamp":"2023-05-22T12:09:42.547Z"}]
[{"url":{},"meta":{"labjs_version":"20.2.4","labjs_build":{"flavor":"production","commit":"f5b4a49f956347addd546a832a3327688c2c0fef"},"location":"https://jatos.plymouth.ac.uk/publix/cf735089-fce2-4af6-ab90-d6ddf01415c5/b296b92c-f4d1-46e2-b9a1-0bd035bf7456/start","userAgent":"Mozilla/5.0 (Windows NT 10.0; Win64; x64) AppleWebKit/537.36 (KHTML, like Gecko) Chrome/113.0.0.0 Safari/537.36","platform":"Win32","language":"en-US","locale":"en-US","timeZone":"Europe/London","timezoneOffset":-60,"screen_width":1366,"screen_height":768,"scroll_width":1518,"scroll_height":646,"window_innerWidth":1517,"window_innerHeight":694,"devicePixelRatio":0.8999999761581421},"sender":"BRIC & Study ID","sender_type":"html.Form","sender_id":"0","BRICID":"EEMR0429","studyID":"GNG","ended_on":"form submission","duration":12690.36099999851,"time_run":1035.5,"time_render":1021.542,"time_show":1038.039,"time_end":13728.39999999851,"time_commit":13728.80000000447,"timestamp":"2023-05-22T10:10:06.513Z","time_switch":13737.431},{"sender":"Context form","sender_type":"html.Form","sender_id":"1","todayDate":"2023-05-22","Date of visit":"2023-05-22","stimulation_type":"TUS","":"","ended_on":"form submission","duration":303181.1690000015,"time_run":13729,"time_render":13720.892,"time_show":13737.431,"time_end":316918.6000000015,"time_commit":316919.8999999985,"timestamp":"2023-05-22T10:15:09.704Z","time_switch":316939.083},{"sender":"Symptoms form","sender_type":"html.Form","sender_id":"2","Headache value":"1","Headache relation":"1","Neck pain value":"1","Neck pain relation":"1","Tooth pain value":"1","Tooth pain relation":"1","Head value":"1","Head relation":"1","Itchiness value":"1","Itchiness relation":"1","Hearing changes value":"1","Hearing changes relation":"1","Speech value":"1","Speech relation":"1","Vision value":"1","Vision relation":"1","Twitching value":"1","Twitching relation":"1","Balance value":"1","Balance relation":"1","Hand value":"1","Hand relation":"1","Numbness value":"1","Numbness relation":"1","Tightness value":"1","Tightness relation":"1","Unusual feelings value":"1","Unusual feelings relation":"1","Anxious value":"1","Anxious relation":"1","Sleepiness value":"1","Sleepiness relation":"1","Attentional difficulties value":"1","Attentional difficulties relation":"1","Forgetful value":"1","Forgetful relation":"1","Nausea value":"1","Nausea relation":"1","Dizziness value":"1","Dizziness relation":"1","Other symptom":"","Other value":"1","Other relation":"1","Comments":"","ended_on":"form submission","duration":43272.417000000016,"time_run":316920.5,"time_render":316905.823,"time_show":316939.083,"time_end":360211.5,"time_commit":360212.5,"timestamp":"2023-05-22T10:15:52.997Z"}]
[{"url":{},"meta":{"labjs_version":"20.2.4","labjs_build":{"flavor":"production","commit":"f5b4a49f956347addd546a832a3327688c2c0fef"},"location":"https://jatos.plymouth.ac.uk/publix/0c654ca7-decf-4e0f-a980-8b31bba1ee78/b296b92c-f4d1-46e2-b9a1-0bd035bf7456/start","userAgent":"Mozilla/5.0 (Windows NT 10.0; Win64; x64) AppleWebKit/537.36 (KHTML, like Gecko) Chrome/113.0.0.0 Safari/537.36","platform":"Win32","language":"en-US","locale":"en-US","timeZone":"Europe/London","timezoneOffset":-60,"screen_width":1920,"screen_height":1080,"scroll_width":1920,"scroll_height":921,"window_innerWidth":1920,"window_innerHeight":969,"devicePixelRatio":1},"sender":"BRIC & Study ID","sender_type":"html.Form","sender_id":"0","BRICID":"BNVN0020","studyID":"BNVN0020","ended_on":"form submission","duration":39617.87899999702,"time_run":2058.199999999255,"time_render":2051.217,"time_show":2067.921,"time_end":41685.79999999702,"time_commit":41686.29999999702,"timestamp":"2023-05-18T13:18:22.520Z","time_switch":41701.092},{"sender":"Context form","sender_type":"html.Form","sender_id":"1","todayDate":"2023-05-18","Date of visit":"2023-05-18","stimulation_type":"TUS","":"","ended_on":"form submission","duration":8968.207999997023,"time_run":41686.699999999255,"time_render":41684.579,"time_show":41701.092,"time_end":50669.29999999702,"time_commit":50669.5,"timestamp":"2023-05-18T13:18:31.503Z","time_switch":50684.386},{"sender":"Symptoms form","sender_type":"html.Form","sender_id":"2","Headache value":"1","Headache relation":"1","Neck pain value":"1","Neck pain relation":"1","Tooth pain value":"1","Tooth pain relation":"1","Head value":"1","Head relation":"1","Itchiness value":"1","Itchiness relation":"1","Hearing changes value":"1","Hearing changes relation":"1","Speech value":"1","Speech relation":"1","Vision value":"1","Vision relation":"1","Twitching value":"1","Twitching relation":"1","Balance value":"1","Balance relation":"1","Hand value":"1","Hand relation":"1","Numbness value":"1","Numbness relation":"1","Tightness value":"1","Tightness relation":"1","Unusual feelings value":"1","Unusual feelings relation":"1","Anxious value":"1","Anxious relation":"1","Sleepiness value":"1","Sleepiness relation":"1","Attentional difficulties value":"1","Attentional difficulties relation":"1","Forgetful value":"1","Forgetful relation":"1","Nausea value":"1","Nausea relation":"1","Dizziness value":"1","Dizziness relation":"1","Other symptom":"","Other value":"1","Other relation":"1","Comments":"","ended_on":"form submission","duration":28704.813999999256,"time_run":50669.699999999255,"time_render":50667.745,"time_show":50684.386,"time_end":79389.19999999925,"time_commit":79389.39999999851,"timestamp":"2023-05-18T13:19:00.224Z"}]
[{"url":{},"meta":{"labjs_version":"20.2.4","labjs_build":{"flavor":"production","commit":"f5b4a49f956347addd546a832a3327688c2c0fef"},"location":"https://jatos.plymouth.ac.uk/publix/1c1b67bb-8682-49e1-ba36-ff3782174970/b296b92c-f4d1-46e2-b9a1-0bd035bf7456/start","userAgent":"Mozilla/5.0 (Windows NT 10.0; Win64; x64) AppleWebKit/537.36 (KHTML, like Gecko) Chrome/113.0.0.0 Safari/537.36","platform":"Win32","language":"en-US","locale":"en-US","timeZone":"Europe/London","timezoneOffset":-60,"screen_width":1366,"screen_height":768,"scroll_width":1518,"scroll_height":646,"window_innerWidth":1517,"window_innerHeight":694,"devicePixelRatio":0.8999999761581421},"sender":"BRIC & Study ID","sender_type":"html.Form","sender_id":"0","BRICID":"RBDN0216","studyID":"GNG","ended_on":"form submission","duration":3107441.5560000236,"time_run":1113.2000000476837,"time_render":1096.724,"time_show":1113.044,"time_end":3108554.600000024,"time_commit":3108556.5,"timestamp":"2023-05-18T13:57:30.607Z","time_switch":3108578.628},{"sender":"Context form","sender_type":"html.Form","sender_id":"1","todayDate":"2023-05-18","Date of visit":"2023-05-18","stimulation_type":"TUS","":"","ended_on":"form submission","duration":5925.672000011895,"time_run":3108558.100000024,"time_render":3108528.783,"time_show":3108578.628,"time_end":3114504.300000012,"time_commit":3114505.2000000477,"timestamp":"2023-05-18T13:57:36.556Z","time_switch":3114528.404},{"sender":"Symptoms form","sender_type":"html.Form","sender_id":"2","Headache value":"1","Headache relation":"1","Neck pain value":"1","Neck pain relation":"1","Tooth pain value":"1","Tooth pain relation":"1","Head value":"1","Head relation":"1","Itchiness value":"1","Itchiness relation":"1","Hearing changes value":"1","Hearing changes relation":"1","Speech value":"1","Speech relation":"1","Vision value":"1","Vision relation":"1","Twitching value":"1","Twitching relation":"1","Balance value":"1","Balance relation":"1","Hand value":"1","Hand relation":"1","Numbness value":"1","Numbness relation":"1","Tightness value":"1","Tightness relation":"1","Unusual feelings value":"1","Unusual feelings relation":"1","Anxious value":"1","Anxious relation":"1","Sleepiness value":"3","Sleepiness relation":"2","Attentional difficulties value":"1","Attentional difficulties relation":"1","Forgetful value":"1","Forgetful relation":"1","Nausea value":"1","Nausea relation":"1","Dizziness value":"1","Dizziness relation":"1","Other symptom":"","Other value":"1","Other relation":"1","Comments":"","ended_on":"form submission","duration":216339.89600001182,"time_run":3114505.800000012,"time_render":3114495.286,"time_show":3114528.404,"time_end":3330868.300000012,"time_commit":3330868.600000024,"timestamp":"2023-05-18T14:01:12.919Z"}]
[{"url":{},"meta":{"labjs_version":"20.2.4","labjs_build":{"flavor":"production","commit":"f5b4a49f956347addd546a832a3327688c2c0fef"},"location":"https://jatos.plymouth.ac.uk/publix/79d053cf-188d-4fbe-a0a4-c826b85f49d6/b296b92c-f4d1-46e2-b9a1-0bd035bf7456/start","userAgent":"Mozilla/5.0 (Windows NT 10.0; Win64; x64) AppleWebKit/537.36 (KHTML, like Gecko) Chrome/113.0.0.0 Safari/537.36","platform":"Win32","language":"en-US","locale":"en-US","timeZone":"Europe/London","timezoneOffset":-60,"screen_width":1366,"screen_height":768,"scroll_width":1518,"scroll_height":646,"window_innerWidth":1517,"window_innerHeight":694,"devicePixelRatio":0.8999999761581421},"sender":"BRIC & Study ID","sender_type":"html.Form","sender_id":"0","BRICID":"SKKY0189","studyID":"GNG","ended_on":"form submission","duration":12514.194999994039,"time_run":1015.5999999940395,"time_render":994.839,"time_show":1011.405,"time_end":13525.59999999404,"time_commit":13525.899999976158,"timestamp":"2023-05-18T10:30:45.797Z","time_switch":13527.455},{"sender":"Context form","sender_type":"html.Form","sender_id":"1","todayDate":"2023-05-18","Date of visit":"2023-05-18","stimulation_type":"TUS","":"","ended_on":"form submission","duration":5481.944999976158,"time_run":13525.899999976158,"time_render":13510.828,"time_show":13527.455,"time_end":19009.399999976158,"time_commit":19009.5,"timestamp":"2023-05-18T10:30:51.280Z","time_switch":19010.566},{"sender":"Symptoms form","sender_type":"html.Form","sender_id":"2","Headache value":"2","Headache relation":"1","Neck pain value":"1","Neck pain relation":"1","Tooth pain value":"1","Tooth pain relation":"1","Head value":"1","Head relation":"1","Itchiness value":"1","Itchiness relation":"1","Hearing changes value":"1","Hearing changes relation":"1","Speech value":"1","Speech relation":"1","Vision value":"1","Vision relation":"1","Twitching value":"1","Twitching relation":"1","Balance value":"1","Balance relation":"1","Hand value":"1","Hand relation":"1","Numbness value":"1","Numbness relation":"1","Tightness value":"1","Tightness relation":"1","Unusual feelings value":"1","Unusual feelings relation":"1","Anxious value":"1","Anxious relation":"1","Sleepiness value":"1","Sleepiness relation":"1","Attentional difficulties value":"1","Attentional difficulties relation":"1","Forgetful value":"1","Forgetful relation":"1","Nausea value":"1","Nausea relation":"1","Dizziness value":"1","Dizziness relation":"1","Other symptom":"","Other value":"1","Other relation":"1","Comments":"","ended_on":"form submission","duration":38757.83399997616,"time_run":19009.69999998808,"time_render":18993.939,"time_show":19010.566,"time_end":57768.39999997616,"time_commit":57768.59999999404,"timestamp":"2023-05-18T10:31:30.040Z"}]
[{"url":{},"meta":{"labjs_version":"20.2.4","labjs_build":{"flavor":"production","commit":"f5b4a49f956347addd546a832a3327688c2c0fef"},"location":"https://jatos.plymouth.ac.uk/publix/2f659ed7-5287-4fdf-b97d-f2f46da0bb6e/b296b92c-f4d1-46e2-b9a1-0bd035bf7456/start","userAgent":"Mozilla/5.0 (Windows NT 10.0; Win64; x64) AppleWebKit/537.36 (KHTML, like Gecko) Chrome/113.0.0.0 Safari/537.36","platform":"Win32","language":"en-US","locale":"en-US","timeZone":"Europe/London","timezoneOffset":-60,"screen_width":1920,"screen_height":1080,"scroll_width":1842,"scroll_height":827,"window_innerWidth":1842,"window_innerHeight":875,"devicePixelRatio":1},"sender":"BRIC & Study ID","sender_type":"html.Form","sender_id":"0","BRICID":"KTWL0180","studyID":"ses-2","ended_on":"form submission","duration":117010.15700001192,"time_run":1598.4000000357628,"time_render":1575.996,"time_show":1592.643,"time_end":118602.80000001192,"time_commit":118603.10000002384,"timestamp":"2023-05-16T13:51:27.697Z","time_switch":118607.516},{"sender":"Context form","sender_type":"html.Form","sender_id":"1","todayDate":"2023-05-16","Date of visit":"2023-05-16","stimulation_type":"TUS","":"","ended_on":"form submission","duration":6785.8840000357595,"time_run":118603.30000001192,"time_render":118590.826,"time_show":118607.516,"time_end":125393.40000003576,"time_commit":125393.5,"timestamp":"2023-05-16T13:51:34.488Z","time_switch":125407.329},{"sender":"Symptoms form","sender_type":"html.Form","sender_id":"2","Headache value":"1","Headache relation":"1","Neck pain value":"1","Neck pain relation":"1","Tooth pain value":"1","Tooth pain relation":"1","Head value":"1","Head relation":"1","Itchiness value":"1","Itchiness relation":"1","Hearing changes value":"1","Hearing changes relation":"1","Speech value":"1","Speech relation":"1","Vision value":"1","Vision relation":"1","Twitching value":"1","Twitching relation":"1","Balance value":"1","Balance relation":"1","Hand value":"1","Hand relation":"1","Numbness value":"1","Numbness relation":"1","Tightness value":"1","Tightness relation":"1","Unusual feelings value":"1","Unusual feelings relation":"1","Anxious value":"1","Anxious relation":"1","Sleepiness value":"1","Sleepiness relation":"1","Attentional difficulties value":"1","Attentional difficulties relation":"1","Forgetful value":"1","Forgetful relation":"1","Nausea value":"1","Nausea relation":"1","Dizziness value":"1","Dizziness relation":"1","Other symptom":"","Other value":"1","Other relation":"1","Comments":"no","ended_on":"form submission","duration":28897.571000035765,"time_run":125393.60000002384,"time_render":125390.804,"time_show":125407.329,"time_end":154304.90000003576,"time_commit":154305.10000002384,"timestamp":"2023-05-16T13:52:03.400Z"}]
[{"url":{},"meta":{"labjs_version":"20.2.4","labjs_build":{"flavor":"production","commit":"f5b4a49f956347addd546a832a3327688c2c0fef"},"location":"https://jatos.plymouth.ac.uk/publix/e5a45b18-0a3e-47fd-9f2e-939c98fcf7b7/b296b92c-f4d1-46e2-b9a1-0bd035bf7456/start","userAgent":"Mozilla/5.0 (Windows NT 10.0; Win64; x64) AppleWebKit/537.36 (KHTML, like Gecko) Chrome/113.0.0.0 Safari/537.36","platform":"Win32","language":"en-US","locale":"en-US","timeZone":"Europe/London","timezoneOffset":-60,"screen_width":1366,"screen_height":768,"scroll_width":1518,"scroll_height":646,"window_innerWidth":1517,"window_innerHeight":694,"devicePixelRatio":0.8999999761581421},"sender":"BRIC & Study ID","sender_type":"html.Form","sender_id":"0","BRICID":"DIVL0216","studyID":"GNG","ended_on":"form submission","duration":11691.399,"time_run":960,"time_render":868.858,"time_show":952.101,"time_end":12643.5,"time_commit":12644,"timestamp":"2023-05-15T11:54:41.018Z","time_switch":12651.595},{"sender":"Context form","sender_type":"html.Form","sender_id":"1","todayDate":"2023-05-15","Date of visit":"2023-05-15","stimulation_type":"TUS","":"","ended_on":"form submission","duration":1506261.905,"time_run":12644.400000000373,"time_render":12635.077,"time_show":12651.595,"time_end":1518913.5,"time_commit":1518913.9000000004,"timestamp":"2023-05-15T12:19:47.294Z","time_switch":1518927.263},{"sender":"Symptoms form","sender_type":"html.Form","sender_id":"2","Headache value":"2","Headache relation":"3","Neck pain value":"1","Neck pain relation":"1","Tooth pain value":"1","Tooth pain relation":"1","Head value":"1","Head relation":"1","Itchiness value":"1","Itchiness relation":"1","Hearing changes value":"1","Hearing changes relation":"1","Speech value":"1","Speech relation":"1","Vision value":"2","Vision relation":"1","Twitching value":"1","Twitching relation":"1","Balance value":"1","Balance relation":"1","Hand value":"2","Hand relation":"2","Numbness value":"2","Numbness relation":"3","Tightness value":"3","Tightness relation":"4","Unusual feelings value":"1","Unusual feelings relation":"1","Anxious value":"1","Anxious relation":"1","Sleepiness value":"1","Sleepiness relation":"1","Attentional difficulties value":"1","Attentional difficulties relation":"1","Forgetful value":"1","Forgetful relation":"1","Nausea value":"1","Nausea relation":"1","Dizziness value":"1","Dizziness relation":"1","Other symptom":"","Other value":"1","Other relation":"1","Comments":"","ended_on":"form submission","duration":79511.73699999996,"time_run":1518914.0999999996,"time_render":1518910.642,"time_show":1518927.263,"time_end":1598439,"time_commit":1598439.2000000011,"timestamp":"2023-05-15T12:21:06.819Z"}]
[{"url":{},"meta":{"labjs_version":"20.2.4","labjs_build":{"flavor":"production","commit":"f5b4a49f956347addd546a832a3327688c2c0fef"},"location":"https://jatos.plymouth.ac.uk/publix/280ba2ff-ebb6-4a8b-9bda-7b0afa3814b6/b296b92c-f4d1-46e2-b9a1-0bd035bf7456/start","userAgent":"Mozilla/5.0 (Windows NT 10.0; Win64; x64) AppleWebKit/537.36 (KHTML, like Gecko) Chrome/113.0.0.0 Safari/537.36","platform":"Win32","language":"en-US","locale":"en-US","timeZone":"Europe/London","timezoneOffset":-60,"screen_width":1366,"screen_height":768,"scroll_width":1518,"scroll_height":646,"window_innerWidth":1517,"window_innerHeight":694,"devicePixelRatio":0.8999999761581421},"sender":"BRIC & Study ID","sender_type":"html.Form","sender_id":"0","BRICID":"KLWT0036","studyID":"GNG","ended_on":"form submission","duration":1664228.6,"time_run":1046.0999999996275,"time_render":1034.076,"time_show":1050.6,"time_end":1665279.2000000002,"time_commit":1665279.7000000002,"timestamp":"2023-05-15T10:54:13.813Z","time_switch":1665285.215},{"sender":"Context form","sender_type":"html.Form","sender_id":"1","todayDate":"2023-05-15","Date of visit":"2023-05-15","stimulation_type":"TUS","":"","ended_on":"form submission","duration":14032.485000000102,"time_run":1665280.0999999996,"time_render":1665268.595,"time_show":1665285.215,"time_end":1679317.7000000002,"time_commit":1679317.8999999994,"timestamp":"2023-05-15T10:54:27.851Z","time_switch":1679334.998},{"sender":"Symptoms form","sender_type":"html.Form","sender_id":"2","Headache value":"1","Headache relation":"3","Neck pain value":"1","Neck pain relation":"1","Tooth pain value":"1","Tooth pain relation":"1","Head value":"1","Head relation":"1","Itchiness value":"1","Itchiness relation":"1","Hearing changes value":"1","Hearing changes relation":"1","Speech value":"1","Speech relation":"1","Vision value":"1","Vision relation":"1","Twitching value":"1","Twitching relation":"1","Balance value":"1","Balance relation":"1","Hand value":"1","Hand relation":"1","Numbness value":"1","Numbness relation":"1","Tightness value":"1","Tightness relation":"1","Unusual feelings value":"1","Unusual feelings relation":"1","Anxious value":"1","Anxious relation":"1","Sleepiness value":"2","Sleepiness relation":"3","Attentional difficulties value":"1","Attentional difficulties relation":"1","Forgetful value":"1","Forgetful relation":"1","Nausea value":"1","Nausea relation":"1","Dizziness value":"1","Dizziness relation":"1","Other symptom":"","Other value":"1","Other relation":"1","Comments":"","ended_on":"form submission","duration":54564.401999999536,"time_run":1679317.8999999994,"time_render":1679301.248,"time_show":1679334.998,"time_end":1733899.3999999994,"time_commit":1733899.5999999996,"timestamp":"2023-05-15T10:55:22.433Z"}]
[{"url":{},"meta":{"labjs_version":"20.2.4","labjs_build":{"flavor":"production","commit":"f5b4a49f956347addd546a832a3327688c2c0fef"},"location":"https://jatos.plymouth.ac.uk/publix/fdafbbb4-ed0a-45ff-ad52-bd75a032f299/b296b92c-f4d1-46e2-b9a1-0bd035bf7456/start","userAgent":"Mozilla/5.0 (Windows NT 10.0; Win64; x64) AppleWebKit/537.36 (KHTML, like Gecko) Chrome/113.0.0.0 Safari/537.36","platform":"Win32","language":"en-US","locale":"en-US","timeZone":"Europe/London","timezoneOffset":-60,"screen_width":1366,"screen_height":768,"scroll_width":1518,"scroll_height":646,"window_innerWidth":1517,"window_innerHeight":694,"devicePixelRatio":0.8999999761581421},"sender":"BRIC & Study ID","sender_type":"html.Form","sender_id":"0","BRICID":"RBDN0216","studyID":"","ended_on":"form submission","duration":37919.498000095366,"time_run":1394,"time_render":1376.232,"time_show":1392.902,"time_end":39312.40000009537,"time_commit":39313.200000047684,"timestamp":"2023-05-11T15:26:56.706Z","time_switch":39324.546},{"sender":"Context form","sender_type":"html.Form","sender_id":"1","todayDate":"2023-05-11","Date of visit":"2023-05-11","stimulation_type":"TUS","":"","ended_on":"form submission","duration":10418.554000143049,"time_run":39313.700000047684,"time_render":39307.99,"time_show":39324.546,"time_end":49743.10000014305,"time_commit":49743.299999952316,"timestamp":"2023-05-11T15:27:07.136Z","time_switch":49757.352},{"sender":"Symptoms form","sender_type":"html.Form","sender_id":"2","Headache value":"1","Headache relation":"1","Neck pain value":"2","Neck pain relation":"1","Tooth pain value":"1","Tooth pain relation":"1","Head value":"1","Head relation":"1","Itchiness value":"1","Itchiness relation":"1","Hearing changes value":"1","Hearing changes relation":"1","Speech value":"1","Speech relation":"1","Vision value":"1","Vision relation":"1","Twitching value":"1","Twitching relation":"1","Balance value":"1","Balance relation":"1","Hand value":"1","Hand relation":"1","Numbness value":"1","Numbness relation":"1","Tightness value":"1","Tightness relation":"1","Unusual feelings value":"1","Unusual feelings relation":"1","Anxious value":"1","Anxious relation":"1","Sleepiness value":"1","Sleepiness relation":"1","Attentional difficulties value":"1","Attentional difficulties relation":"1","Forgetful value":"1","Forgetful relation":"1","Nausea value":"1","Nausea relation":"1","Dizziness value":"1","Dizziness relation":"1","Other symptom":"","Other value":"1","Other relation":"1","Comments":"","ended_on":"form submission","duration":29201.947999952317,"time_run":49743.5,"time_render":49740.676,"time_show":49757.352,"time_end":78959.29999995232,"time_commit":78960.10000014305,"timestamp":"2023-05-11T15:27:36.352Z"}]
[{"url":{},"meta":{"labjs_version":"20.2.4","labjs_build":{"flavor":"production","commit":"f5b4a49f956347addd546a832a3327688c2c0fef"},"location":"https://jatos.plymouth.ac.uk/publix/81ea4000-48ee-45ef-b722-e4bba9e8e6b3/b296b92c-f4d1-46e2-b9a1-0bd035bf7456/start","userAgent":"Mozilla/5.0 (Windows NT 10.0; Win64; x64) AppleWebKit/537.36 (KHTML, like Gecko) Chrome/113.0.0.0 Safari/537.36","platform":"Win32","language":"en-US","locale":"en-US","timeZone":"Europe/London","timezoneOffset":-60,"screen_width":1366,"screen_height":768,"scroll_width":1518,"scroll_height":646,"window_innerWidth":1517,"window_innerHeight":694,"devicePixelRatio":0.8999999761581421},"sender":"BRIC & Study ID","sender_type":"html.Form","sender_id":"0","BRICID":"sshw0093","studyID":"","ended_on":"form submission","duration":1569762.0010000954,"time_run":2533.5,"time_render":2519.28,"time_show":2535.899,"time_end":1572297.9000000954,"time_commit":1572298.2000000477,"timestamp":"2023-05-11T13:06:25.008Z","time_switch":1572297.748},{"sender":"Context form","sender_type":"html.Form","sender_id":"1","todayDate":"2023-05-11","Date of visit":"1973-01-31","stimulation_type":"TUS","":"","ended_on":"form submission","duration":26008.45200004778,"time_run":1572298.5,"time_render":1572281.285,"time_show":1572297.748,"time_end":1598306.2000000477,"time_commit":1598307,"timestamp":"2023-05-11T13:06:51.017Z","time_switch":1598313.209},{"sender":"Symptoms form","sender_type":"html.Form","sender_id":"2","Headache value":"1","Headache relation":"1","Neck pain value":"1","Neck pain relation":"1","Tooth pain value":"1","Tooth pain relation":"1","Head value":"1","Head relation":"1","Itchiness value":"1","Itchiness relation":"1","Hearing changes value":"1","Hearing changes relation":"1","Speech value":"1","Speech relation":"1","Vision value":"1","Vision relation":"1","Twitching value":"1","Twitching relation":"1","Balance value":"1","Balance relation":"1","Hand value":"1","Hand relation":"1","Numbness value":"1","Numbness relation":"1","Tightness value":"1","Tightness relation":"1","Unusual feelings value":"1","Unusual feelings relation":"1","Anxious value":"1","Anxious relation":"1","Sleepiness value":"1","Sleepiness relation":"1","Attentional difficulties value":"1","Attentional difficulties relation":"1","Forgetful value":"1","Forgetful relation":"1","Nausea value":"1","Nausea relation":"1","Dizziness value":"1","Dizziness relation":"1","Other symptom":"","Other value":"1","Other relation":"1","Comments":"","ended_on":"form submission","duration":26269.29099999997,"time_run":1598307.600000143,"time_render":1598296.641,"time_show":1598313.209,"time_end":1624582.5,"time_commit":1624582.7999999523,"timestamp":"2023-05-11T13:07:17.293Z"}]
[{"url":{},"meta":{"labjs_version":"20.2.4","labjs_build":{"flavor":"production","commit":"f5b4a49f956347addd546a832a3327688c2c0fef"},"location":"https://jatos.plymouth.ac.uk/publix/8c15c4da-089c-46b8-ab83-1a446ed2d512/b296b92c-f4d1-46e2-b9a1-0bd035bf7456/start","userAgent":"Mozilla/5.0 (Macintosh; Intel Mac OS X 10_15_6) AppleWebKit/605.1.15 (KHTML, like Gecko) Version/15.5 Safari/605.1.15","platform":"MacIntel","language":"en-GB","locale":"en-GB","timeZone":"Europe/London","timezoneOffset":-60,"screen_width":834,"screen_height":1112,"scroll_width":834,"scroll_height":1025,"window_innerWidth":834,"window_innerHeight":1009,"devicePixelRatio":2},"sender":"BRIC & Study ID","sender_type":"html.Form","sender_id":"0","BRICID":"Zhhs0560","studyID":"","ended_on":"form submission","duration":41622,"time_run":2675.0000000000005,"time_render":2680,"time_show":2713,"time_end":44335,"time_commit":44339,"timestamp":"2023-04-27T20:23:21.018Z","time_switch":44360},{"sender":"Context form","sender_type":"html.Form","sender_id":"1","todayDate":"2023-04-27","Date of visit":"2023-04-27","stimulation_type":"TUS","":"","ended_on":"form submission","duration":12831,"time_run":44340,"time_render":44351,"time_show":44360,"time_end":57191,"time_commit":57192,"timestamp":"2023-04-27T20:23:33.871Z","time_switch":57223},{"sender":"Symptoms form","sender_type":"html.Form","sender_id":"2","Headache value":"1","Headache relation":"1","Neck pain value":"1","Neck pain relation":"1","Tooth pain value":"1","Tooth pain relation":"1","Head value":"1","Head relation":"1","Itchiness value":"1","Itchiness relation":"1","Hearing changes value":"1","Hearing changes relation":"1","Speech value":"1","Speech relation":"1","Vision value":"1","Vision relation":"1","Twitching value":"1","Twitching relation":"1","Balance value":"1","Balance relation":"1","Hand value":"1","Hand relation":"1","Numbness value":"1","Numbness relation":"1","Tightness value":"1","Tightness relation":"1","Unusual feelings value":"1","Unusual feelings relation":"1","Anxious value":"1","Anxious relation":"1","Sleepiness value":"1","Sleepiness relation":"1","Attentional difficulties value":"1","Attentional difficulties relation":"1","Forgetful value":"1","Forgetful relation":"1","Nausea value":"1","Nausea relation":"1","Dizziness value":"1","Dizziness relation":"1","Other symptom":"","Other value":"1","Other relation":"1","Comments":"","ended_on":"form submission","duration":25232,"time_run":57194,"time_render":57214,"time_show":57223,"time_end":82455,"time_commit":82456,"timestamp":"2023-04-27T20:23:59.134Z"}]
[{"url":{},"meta":{"labjs_version":"20.2.4","labjs_build":{"flavor":"production","commit":"f5b4a49f956347addd546a832a3327688c2c0fef"},"location":"https://jatos.plymouth.ac.uk/publix/e4b8d4dd-45a5-4d60-a9b8-d8a3f58f7625/b296b92c-f4d1-46e2-b9a1-0bd035bf7456/start","userAgent":"Mozilla/5.0 (iPhone; CPU iPhone OS 16_1_1 like Mac OS X) AppleWebKit/605.1.15 (KHTML, like Gecko) Version/16.1 Mobile/15E148 Safari/604.1","platform":"iPhone","language":"en-GB","locale":"en-GB","timeZone":"Europe/London","timezoneOffset":-60,"screen_width":414,"screen_height":896,"scroll_width":414,"scroll_height":796,"window_innerWidth":414,"window_innerHeight":715,"devicePixelRatio":2},"sender":"BRIC & Study ID","sender_type":"html.Form","sender_id":"0","BRICID":"BNVN0100","studyID":"","ended_on":"form submission","duration":92776.00000000001,"time_run":1801,"time_render":1811,"time_show":1824,"time_end":94600.00000000001,"time_commit":94604,"timestamp":"2023-04-27T17:58:43.279Z","time_switch":94626},{"sender":"Context form","sender_type":"html.Form","sender_id":"1","todayDate":"2023-04-27","Date of visit":"2023-04-27","stimulation_type":"TUS","":"","ended_on":"form submission","duration":11978,"time_run":94607,"time_render":94621,"time_show":94626,"time_end":106604,"time_commit":106604,"timestamp":"2023-04-27T17:58:55.279Z","time_switch":106627},{"sender":"Symptoms form","sender_type":"html.Form","sender_id":"2","Headache value":"1","Headache relation":"1","Neck pain value":"1","Neck pain relation":"1","Tooth pain value":"1","Tooth pain relation":"1","Head value":"1","Head relation":"1","Itchiness value":"1","Itchiness relation":"1","Hearing changes value":"1","Hearing changes relation":"1","Speech value":"1","Speech relation":"1","Vision value":"1","Vision relation":"1","Twitching value":"1","Twitching relation":"1","Balance value":"1","Balance relation":"1","Hand value":"1","Hand relation":"1","Numbness value":"1","Numbness relation":"1","Tightness value":"1","Tightness relation":"1","Unusual feelings value":"1","Unusual feelings relation":"1","Anxious value":"1","Anxious relation":"1","Sleepiness value":"1","Sleepiness relation":"1","Attentional difficulties value":"1","Attentional difficulties relation":"1","Forgetful value":"1","Forgetful relation":"1","Nausea value":"1","Nausea relation":"1","Dizziness value":"1","Dizziness relation":"1","Other symptom":"","Other value":"1","Other relation":"1","Comments":"THE STUDY WENT SMOOTH. IM IN FINE FETTLE. ","ended_on":"form submission","duration":59854,"time_run":106605,"time_render":106613,"time_show":106627,"time_end":166481,"time_commit":166483,"timestamp":"2023-04-27T17:59:55.158Z"}]
[{"url":{},"meta":{"labjs_version":"20.2.4","labjs_build":{"flavor":"production","commit":"f5b4a49f956347addd546a832a3327688c2c0fef"},"location":"https://jatos.plymouth.ac.uk/publix/c1e44621-36d3-457c-b21c-c213c5a10ce9/b296b92c-f4d1-46e2-b9a1-0bd035bf7456/start","userAgent":"Mozilla/5.0 (iPad; CPU OS 16_3 like Mac OS X) AppleWebKit/605.1.15 (KHTML, like Gecko) CriOS/112.0.5615.46 Mobile/15E148 Safari/604.1","platform":"iPad","language":"en-GB","locale":"en-GB","timeZone":"Europe/London","timezoneOffset":-60,"screen_width":834,"screen_height":1194,"scroll_width":1194,"scroll_height":742,"window_innerWidth":1194,"window_innerHeight":715,"devicePixelRatio":2},"sender":"BRIC & Study ID","sender_type":"html.Form","sender_id":"0","BRICID":"Ktgo2025","studyID":"","ended_on":"form submission","duration":11451,"time_run":1685,"time_render":1689,"time_show":1694,"time_end":13145,"time_commit":13147,"timestamp":"2023-04-21T21:02:55.585Z","time_switch":13156},{"sender":"Context form","sender_type":"html.Form","sender_id":"1","todayDate":"2023-04-21","Date of visit":"2023-04-20","stimulation_type":"TUS","":"","ended_on":"form submission","duration":6158,"time_run":13147,"time_render":13153,"time_show":13156,"time_end":19314,"time_commit":19315,"timestamp":"2023-04-21T21:03:01.753Z","time_switch":19336},{"sender":"Symptoms form","sender_type":"html.Form","sender_id":"2","Headache value":"1","Headache relation":"1","Neck pain value":"1","Neck pain relation":"1","Tooth pain value":"1","Tooth pain relation":"1","Head value":"1","Head relation":"1","Itchiness value":"1","Itchiness relation":"1","Hearing changes value":"1","Hearing changes relation":"1","Speech value":"1","Speech relation":"1","Vision value":"1","Vision relation":"1","Twitching value":"1","Twitching relation":"1","Balance value":"1","Balance relation":"1","Hand value":"1","Hand relation":"1","Numbness value":"1","Numbness relation":"1","Tightness value":"1","Tightness relation":"1","Unusual feelings value":"1","Unusual feelings relation":"1","Anxious value":"1","Anxious relation":"1","Sleepiness value":"1","Sleepiness relation":"1","Attentional difficulties value":"1","Attentional difficulties relation":"1","Forgetful value":"1","Forgetful relation":"1","Nausea value":"1","Nausea relation":"1","Dizziness value":"1","Dizziness relation":"1","Other symptom":"","Other value":"1","Other relation":"1","Comments":"","ended_on":"form submission","duration":11881.000000000004,"time_run":19316,"time_render":19329,"time_show":19336,"time_end":31217.000000000004,"time_commit":31218,"timestamp":"2023-04-21T21:03:13.656Z"}]
[{"url":{},"meta":{"labjs_version":"20.2.4","labjs_build":{"flavor":"production","commit":"f5b4a49f956347addd546a832a3327688c2c0fef"},"location":"https://jatos.plymouth.ac.uk/publix/2fafb2e1-0737-4954-991d-1dcddbc5d668/b296b92c-f4d1-46e2-b9a1-0bd035bf7456/start","userAgent":"Mozilla/5.0 (Windows NT 6.1; Win64; x64; rv:109.0) Gecko/20100101 Firefox/112.0","platform":"Win32","language":"en-US","locale":"en-GB","timeZone":"Europe/London","timezoneOffset":-60,"screen_width":1920,"screen_height":1080,"scroll_width":1920,"scroll_height":860,"window_innerWidth":1920,"window_innerHeight":908,"devicePixelRatio":1},"sender":"BRIC & Study ID","sender_type":"html.Form","sender_id":"0","BRICID":"SSHW0093","studyID":"","ended_on":"form submission","duration":19067.06,"time_run":1738,"time_render":1738.14,"time_show":1748.94,"time_end":20816,"time_commit":20817,"timestamp":"2023-04-20T13:42:55.843Z","time_switch":20836.12},{"sender":"Context form","sender_type":"html.Form","sender_id":"1","todayDate":"2023-04-20","Date of visit":"2023-04-20","stimulation_type":"TUS","":"","ended_on":"form submission","duration":14774.880000000001,"time_run":20817,"time_render":20810.84,"time_show":20836.12,"time_end":35611,"time_commit":35612,"timestamp":"2023-04-20T13:43:10.638Z","time_switch":35618.6},{"sender":"Symptoms form","sender_type":"html.Form","sender_id":"2","Headache value":"1","Headache relation":"1","Neck pain value":"1","Neck pain relation":"1","Tooth pain value":"1","Tooth pain relation":"1","Head value":"1","Head relation":"1","Itchiness value":"1","Itchiness relation":"1","Hearing changes value":"1","Hearing changes relation":"1","Speech value":"1","Speech relation":"1","Vision value":"1","Vision relation":"1","Twitching value":"1","Twitching relation":"1","Balance value":"1","Balance relation":"1","Hand value":"1","Hand relation":"1","Numbness value":"1","Numbness relation":"1","Tightness value":"1","Tightness relation":"1","Unusual feelings value":"1","Unusual feelings relation":"1","Anxious value":"1","Anxious relation":"1","Sleepiness value":"1","Sleepiness relation":"1","Attentional difficulties value":"1","Attentional difficulties relation":"1","Forgetful value":"1","Forgetful relation":"1","Nausea value":"1","Nausea relation":"1","Dizziness value":"1","Dizziness relation":"1","Other symptom":"","Other value":"1","Other relation":"1","Comments":"","ended_on":"form submission","duration":321660.4,"time_run":35612,"time_render":35608.92,"time_show":35618.6,"time_end":357279,"time_commit":357280,"timestamp":"2023-04-20T13:48:32.307Z"}]
[{"url":{},"meta":{"labjs_version":"20.2.4","labjs_build":{"flavor":"production","commit":"f5b4a49f956347addd546a832a3327688c2c0fef"},"location":"https://jatos.plymouth.ac.uk/publix/6ac50e50-aca7-4cc3-b9b7-03267d2775cb/b296b92c-f4d1-46e2-b9a1-0bd035bf7456/start","userAgent":"Mozilla/5.0 (Windows NT 10.0; Win64; x64; rv:109.0) Gecko/20100101 Firefox/111.0","platform":"Win32","language":"en-GB","locale":"en-GB","timeZone":"Europe/London","timezoneOffset":-60,"screen_width":1920,"screen_height":1080,"scroll_width":1617,"scroll_height":836,"window_innerWidth":1617,"window_innerHeight":884,"devicePixelRatio":1},"sender":"BRIC & Study ID","sender_type":"html.Form","sender_id":"0","BRICID":"KTWL0180","studyID":"TD","ended_on":"form submission","duration":87789.76,"time_run":1881,"time_render":1881.1,"time_show":1887.24,"time_end":89677,"time_commit":89678,"timestamp":"2023-04-19T14:08:52.275Z","time_switch":89685.8},{"sender":"Context form","sender_type":"html.Form","sender_id":"1","todayDate":"2023-04-19","Date of visit":"2023-04-19","stimulation_type":"TUS","":"","ended_on":"form submission","duration":5805.199999999997,"time_run":89680,"time_render":89673.56,"time_show":89685.8,"time_end":95491,"time_commit":95491,"timestamp":"2023-04-19T14:08:58.087Z","time_switch":95502.48},{"sender":"Symptoms form","sender_type":"html.Form","sender_id":"2","Headache value":"1","Headache relation":"1","Neck pain value":"1","Neck pain relation":"1","Tooth pain value":"1","Tooth pain relation":"1","Head value":"1","Head relation":"1","Itchiness value":"1","Itchiness relation":"1","Hearing changes value":"1","Hearing changes relation":"1","Speech value":"1","Speech relation":"1","Vision value":"1","Vision relation":"1","Twitching value":"1","Twitching relation":"1","Balance value":"1","Balance relation":"1","Hand value":"1","Hand relation":"1","Numbness value":"1","Numbness relation":"1","Tightness value":"1","Tightness relation":"1","Unusual feelings value":"1","Unusual feelings relation":"1","Anxious value":"1","Anxious relation":"1","Sleepiness value":"1","Sleepiness relation":"1","Attentional difficulties value":"1","Attentional difficulties relation":"1","Forgetful value":"1","Forgetful relation":"1","Nausea value":"1","Nausea relation":"1","Dizziness value":"1","Dizziness relation":"1","Other symptom":"","Other value":"1","Other relation":"1","Comments":"No","ended_on":"form submission","duration":34796.520000000004,"time_run":95492,"time_render":95489.76,"time_show":95502.48,"time_end":130299,"time_commit":130300,"timestamp":"2023-04-19T14:09:32.895Z"}]
[{"url":{},"meta":{"labjs_version":"20.2.4","labjs_build":{"flavor":"production","commit":"f5b4a49f956347addd546a832a3327688c2c0fef"},"location":"https://jatos.plymouth.ac.uk/publix/31271f2d-d822-47ca-8f92-3b7a351fe367/b296b92c-f4d1-46e2-b9a1-0bd035bf7456/start","userAgent":"Mozilla/5.0 (Windows NT 10.0; Win64; x64) AppleWebKit/537.36 (KHTML, like Gecko) Chrome/112.0.0.0 Safari/537.36","platform":"Win32","language":"en-US","locale":"en-US","timeZone":"Europe/London","timezoneOffset":-60,"screen_width":1920,"screen_height":1080,"scroll_width":1920,"scroll_height":889,"window_innerWidth":1920,"window_innerHeight":937,"devicePixelRatio":1},"sender":"BRIC & Study ID","sender_type":"html.Form","sender_id":"0","BRICID":"LSPW0130","studyID":"TD","ended_on":"form submission","duration":15645.48800000596,"time_run":1106.7999999970198,"time_render":1082.801,"time_show":1099.412,"time_end":16744.90000000596,"time_commit":16745.29999999702,"timestamp":"2023-04-19T10:40:33.954Z","time_switch":16749.17},{"sender":"Context form","sender_type":"html.Form","sender_id":"1","todayDate":"2023-04-19","Date of visit":"2023-04-19","stimulation_type":"TUS","":"","ended_on":"form submission","duration":8667.530000002982,"time_run":16745.5,"time_render":16732.592,"time_show":16749.17,"time_end":25416.70000000298,"time_commit":25416.90000000596,"timestamp":"2023-04-19T10:40:42.625Z","time_switch":25432.366},{"sender":"Symptoms form","sender_type":"html.Form","sender_id":"2","Headache value":"1","Headache relation":"1","Neck pain value":"1","Neck pain relation":"1","Tooth pain value":"1","Tooth pain relation":"1","Head value":"1","Head relation":"1","Itchiness value":"1","Itchiness relation":"1","Hearing changes value":"1","Hearing changes relation":"1","Speech value":"1","Speech relation":"1","Vision value":"1","Vision relation":"1","Twitching value":"1","Twitching relation":"1","Balance value":"1","Balance relation":"1","Hand value":"1","Hand relation":"1","Numbness value":"1","Numbness relation":"1","Tightness value":"1","Tightness relation":"1","Unusual feelings value":"1","Unusual feelings relation":"1","Anxious value":"1","Anxious relation":"1","Sleepiness value":"1","Sleepiness relation":"1","Attentional difficulties value":"1","Attentional difficulties relation":"1","Forgetful value":"1","Forgetful relation":"1","Nausea value":"1","Nausea relation":"1","Dizziness value":"1","Dizziness relation":"1","Other symptom":"feel light and airy. ","Other value":"1","Other relation":"1","Comments":"","ended_on":"form submission","duration":182704.23399999403,"time_run":25417,"time_render":25415.936,"time_show":25432.366,"time_end":208136.59999999404,"time_commit":208136.79999999702,"timestamp":"2023-04-19T10:43:45.346Z"}]
[{"url":{},"meta":{"labjs_version":"20.2.4","labjs_build":{"flavor":"production","commit":"f5b4a49f956347addd546a832a3327688c2c0fef"},"location":"https://jatos.plymouth.ac.uk/publix/488e2a5d-8ca5-4471-9d4b-af5361bfb8c2/b296b92c-f4d1-46e2-b9a1-0bd035bf7456/start","userAgent":"Mozilla/5.0 (Windows NT 10.0; Win64; x64) AppleWebKit/537.36 (KHTML, like Gecko) Chrome/112.0.0.0 Safari/537.36","platform":"Win32","language":"en-US","locale":"en-US","timeZone":"Europe/London","timezoneOffset":-60,"screen_width":1920,"screen_height":1080,"scroll_width":1920,"scroll_height":889,"window_innerWidth":1920,"window_innerHeight":937,"devicePixelRatio":1},"sender":"BRIC & Study ID","sender_type":"html.Form","sender_id":"0","BRICID":"ANHT0414","studyID":"TD","ended_on":"form submission","duration":6416175.312000001,"time_run":1164.699999999255,"time_render":1152.256,"time_show":1168.888,"time_end":6417344.200000001,"time_commit":6417344.799999999,"timestamp":"2023-04-18T13:48:32.495Z","time_switch":6417352.933},{"sender":"Context form","sender_type":"html.Form","sender_id":"1","todayDate":"2023-04-18","Date of visit":"2023-04-18","stimulation_type":"TUS","":"","ended_on":"form submission","duration":36045.46700000018,"time_run":6417344.999999998,"time_render":6417336.29,"time_show":6417352.933,"time_end":6453398.4,"time_commit":6453398.6,"timestamp":"2023-04-18T13:49:08.548Z","time_switch":6453402.396},{"sender":"Symptoms form","sender_type":"html.Form","sender_id":"2","Headache value":"1","Headache relation":"1","Neck pain value":"1","Neck pain relation":"1","Tooth pain value":"1","Tooth pain relation":"1","Head value":"1","Head relation":"1","Itchiness value":"1","Itchiness relation":"1","Hearing changes value":"1","Hearing changes relation":"1","Speech value":"1","Speech relation":"1","Vision value":"1","Vision relation":"1","Twitching value":"1","Twitching relation":"1","Balance value":"1","Balance relation":"1","Hand value":"1","Hand relation":"1","Numbness value":"1","Numbness relation":"1","Tightness value":"1","Tightness relation":"1","Unusual feelings value":"1","Unusual feelings relation":"1","Anxious value":"1","Anxious relation":"1","Sleepiness value":"1","Sleepiness relation":"1","Attentional difficulties value":"1","Attentional difficulties relation":"1","Forgetful value":"1","Forgetful relation":"1","Nausea value":"1","Nausea relation":"1","Dizziness value":"1","Dizziness relation":"1","Other symptom":"","Other value":"1","Other relation":"1","Comments":"","ended_on":"form submission","duration":13779.60399999842,"time_run":6453398.700000001,"time_render":6453385.909,"time_show":6453402.396,"time_end":6467181.999999998,"time_commit":6467182.1,"timestamp":"2023-04-18T13:49:22.332Z"}]
